stimulus,correct_answer,correct_1,correct_2,living_room_1,kitchen_1,living_room_2,bedroom_1,kitchen_2,bedroom_2,subject_id,task,block_total_cat,block_scene_cat,trial_block_cat,trial_total_cat,target_cat,category,cond_cat,conceptual,perceptual,n,typicality,ranked,typi_bin,cond_mem,trial_total_mem,cat_training_trials.thisRepN,cat_training_trials.thisTrialN,cat_training_trials.thisN,cat_training_trials.thisIndex,memo_training_trials.thisRepN,memo_training_trials.thisTrialN,memo_training_trials.thisN,memo_training_trials.thisIndex,categorization_trials.thisRepN,categorization_trials.thisTrialN,categorization_trials.thisN,categorization_trials.thisIndex,kitchen_a_categorization_trials.thisRepN,kitchen_a_categorization_trials.thisTrialN,kitchen_a_categorization_trials.thisN,kitchen_a_categorization_trials.thisIndex,kitchen_a_memotest.thisRepN,kitchen_a_memotest.thisTrialN,kitchen_a_memotest.thisN,kitchen_a_memotest.thisIndex,kitchen_b_categorization_trials.thisRepN,kitchen_b_categorization_trials.thisTrialN,kitchen_b_categorization_trials.thisN,kitchen_b_categorization_trials.thisIndex,kitchen_b_memotest.thisRepN,kitchen_b_memotest.thisTrialN,kitchen_b_memotest.thisN,kitchen_b_memotest.thisIndex,living_a_categorization_trials.thisRepN,living_a_categorization_trials.thisTrialN,living_a_categorization_trials.thisN,living_a_categorization_trials.thisIndex,living_a_memotest.thisRepN,living_a_memotest.thisTrialN,living_a_memotest.thisN,living_a_memotest.thisIndex,living_b_categorization_trials.thisRepN,living_b_categorization_trials.thisTrialN,living_b_categorization_trials.thisN,living_b_categorization_trials.thisIndex,living_b_memotest.thisRepN,living_b_memotest.thisTrialN,living_b_memotest.thisN,living_b_memotest.thisIndex,bed_a_categorization_trials.thisRepN,bed_a_categorization_trials.thisTrialN,bed_a_categorization_trials.thisN,bed_a_categorization_trials.thisIndex,bed_a_memotest.thisRepN,bed_a_memotest.thisTrialN,bed_a_memotest.thisN,bed_a_memotest.thisIndex,bed_b_categorization_trials.thisRepN,bed_b_categorization_trials.thisTrialN,bed_b_categorization_trials.thisN,bed_b_categorization_trials.thisIndex,bed_b_memotest.thisRepN,bed_b_memotest.thisTrialN,bed_b_memotest.thisN,bed_b_memotest.thisIndex,thisRow.t,notes,cat_training_key.keys,cat_training_key.corr,cat_training_key.rt,cat_training_key.duration,memo_training_slider.response,memo_training_slider.rt,living_a_text_2.started,living_a_block_no.started,living_picture_image.started,living_picture_resp.keys,living_picture_resp.corr,living_picture_resp.rt,living_picture_resp.duration,living_picture_image.stopped,memotest_task_slider.response,memotest_task_slider.rt,kitchen_fix.started,kitchen_picture_resp.keys,kitchen_picture_resp.corr,kitchen_picture_resp.rt,kitchen_picture_resp.duration,living_b_text_2.started,living_b_block_no.started,bed_a_text_2.started,bed_a_block_no.started,bed_picture_image.started,bed_picture_resp.keys,bed_picture_resp.corr,bed_picture_resp.rt,bed_picture_resp.duration,bed_picture_image.stopped,bed_b_text_2.started,bed_b_block_no.started,vpcode,participant,Alter,Geschlecht,Haendigkeit,date,expName,psychopyVersion,frameRate,expStart,
stimuli/lituryeyxcfvghjk.jpg,f,,,,,,,,,,,,,,,,,,,,,,,,,,0,0,0,7,,,,,,,,,,,,,,,,,,,,,,,,,,,,,,,,,,,,,,,,,,,,,,,,,,,,,,,,,123.0120160669976,,j,0,0.23460191999765811,None,,,,,,,,,,,,,,,,,,,,,,,,,,,,,,,1,,,,2024-04-05_18h44.45.450,SceneCat_2023_2,2023.2.3,119.57630146101036,2024-04-05 18h44.56.749243 +0200,
stimuli/fvbjgv.jpg,f,,,,,,,,,,,,,,,,,,,,,,,,,,0,1,1,1,,,,,,,,,,,,,,,,,,,,,,,,,,,,,,,,,,,,,,,,,,,,,,,,,,,,,,,,,126.06358540300062,,j,0,0.12823426699833362,None,,,,,,,,,,,,,,,,,,,,,,,,,,,,,,,1,,,,2024-04-05_18h44.45.450,SceneCat_2023_2,2023.2.3,119.57630146101036,2024-04-05 18h44.56.749243 +0200,
stimuli/erthjnbvcfg.jpg,f,,,,,,,,,,,,,,,,,,,,,,,,,,0,2,2,11,,,,,,,,,,,,,,,,,,,,,,,,,,,,,,,,,,,,,,,,,,,,,,,,,,,,,,,,,129.22137057999862,,j,0,0.31159126900092815,None,,,,,,,,,,,,,,,,,,,,,,,,,,,,,,,1,,,,2024-04-05_18h44.45.450,SceneCat_2023_2,2023.2.3,119.57630146101036,2024-04-05 18h44.56.749243 +0200,
stimuli/ztfcvbnhg.jpg,f,,,,,,,,,,,,,,,,,,,,,,,,,,0,3,3,0,,,,,,,,,,,,,,,,,,,,,,,,,,,,,,,,,,,,,,,,,,,,,,,,,,,,,,,,,132.0770061809999,,j,0,0.09020318900002167,None,,,,,,,,,,,,,,,,,,,,,,,,,,,,,,,1,,,,2024-04-05_18h44.45.450,SceneCat_2023_2,2023.2.3,119.57630146101036,2024-04-05 18h44.56.749243 +0200,
stimuli/oelkjhgfcfghjk.jpg,f,,,,,,,,,,,,,,,,,,,,,,,,,,0,4,4,2,,,,,,,,,,,,,,,,,,,,,,,,,,,,,,,,,,,,,,,,,,,,,,,,,,,,,,,,,134.64354263099813,,j,0,2.6257937749978737,None,,,,,,,,,,,,,,,,,,,,,,,,,,,,,,,1,,,,2024-04-05_18h44.45.450,SceneCat_2023_2,2023.2.3,119.57630146101036,2024-04-05 18h44.56.749243 +0200,
stimuli/lkjhgfdxsdfghj.jpg,f,,,,,,,,,,,,,,,,,,,,,,,,,,0,5,5,3,,,,,,,,,,,,,,,,,,,,,,,,,,,,,,,,,,,,,,,,,,,,,,,,,,,,,,,,,139.9388765879994,,j,0,3.880012245001126,None,,,,,,,,,,,,,,,,,,,,,,,,,,,,,,,1,,,,2024-04-05_18h44.45.450,SceneCat_2023_2,2023.2.3,119.57630146101036,2024-04-05 18h44.56.749243 +0200,
stimuli/asdfghjkloelkjhg.jpg,f,,,,,,,,,,,,,,,,,,,,,,,,,,0,6,6,4,,,,,,,,,,,,,,,,,,,,,,,,,,,,,,,,,,,,,,,,,,,,,,,,,,,,,,,,,147.0512849989973,,j,0,1.014321557002404,None,,,,,,,,,,,,,,,,,,,,,,,,,,,,,,,1,,,,2024-04-05_18h44.45.450,SceneCat_2023_2,2023.2.3,119.57630146101036,2024-04-05 18h44.56.749243 +0200,
stimuli/ihnbvcfgd.jpg,f,,,,,,,,,,,,,,,,,,,,,,,,,,0,7,7,6,,,,,,,,,,,,,,,,,,,,,,,,,,,,,,,,,,,,,,,,,,,,,,,,,,,,,,,,,150.44301819499742,,j,0,0.17537219600126264,None,,,,,,,,,,,,,,,,,,,,,,,,,,,,,,,1,,,,2024-04-05_18h44.45.450,SceneCat_2023_2,2023.2.3,119.57630146101036,2024-04-05 18h44.56.749243 +0200,
stimuli/uzgfvbnh.jpg,j,,,,,,,,,,,,,,,,,,,,,,,,,,0,8,8,14,,,,,,,,,,,,,,,,,,,,,,,,,,,,,,,,,,,,,,,,,,,,,,,,,,,,,,,,,153.06173653400037,,j,1,0.07733993399961037,None,,,,,,,,,,,,,,,,,,,,,,,,,,,,,,,1,,,,2024-04-05_18h44.45.450,SceneCat_2023_2,2023.2.3,119.57630146101036,2024-04-05 18h44.56.749243 +0200,
stimuli/sdfghjklkjbv.jpg,f,,,,,,,,,,,,,,,,,,,,,,,,,,0,9,9,5,,,,,,,,,,,,,,,,,,,,,,,,,,,,,,,,,,,,,,,,,,,,,,,,,,,,,,,,,156.0925264619982,,j,0,0.21592259400131297,None,,,,,,,,,,,,,,,,,,,,,,,,,,,,,,,1,,,,2024-04-05_18h44.45.450,SceneCat_2023_2,2023.2.3,119.57630146101036,2024-04-05 18h44.56.749243 +0200,
stimuli/khfp.jpg,f,,,,,,,,,,,,,,,,,,,,,,,,,,0,10,10,8,,,,,,,,,,,,,,,,,,,,,,,,,,,,,,,,,,,,,,,,,,,,,,,,,,,,,,,,,159.31639274400004,,j,0,0.3225836099991284,None,,,,,,,,,,,,,,,,,,,,,,,,,,,,,,,1,,,,2024-04-05_18h44.45.450,SceneCat_2023_2,2023.2.3,119.57630146101036,2024-04-05 18h44.56.749243 +0200,
stimuli/uhnnfhj.jpg,j,,,,,,,,,,,,,,,,,,,,,,,,,,0,11,11,12,,,,,,,,,,,,,,,,,,,,,,,,,,,,,,,,,,,,,,,,,,,,,,,,,,,,,,,,,162.80940883400035,,j,1,0.2645058659982169,None,,,,,,,,,,,,,,,,,,,,,,,,,,,,,,,1,,,,2024-04-05_18h44.45.450,SceneCat_2023_2,2023.2.3,119.57630146101036,2024-04-05 18h44.56.749243 +0200,
stimuli/asdfghertghvgh.jpg,f,,,,,,,,,,,,,,,,,,,,,,,,,,0,12,12,10,,,,,,,,,,,,,,,,,,,,,,,,,,,,,,,,,,,,,,,,,,,,,,,,,,,,,,,,,166.038867381998,,j,0,0.49302637800064986,None,,,,,,,,,,,,,,,,,,,,,,,,,,,,,,,1,,,,2024-04-05_18h44.45.450,SceneCat_2023_2,2023.2.3,119.57630146101036,2024-04-05 18h44.56.749243 +0200,
stimuli/gfvbnbg.jpg,j,,,,,,,,,,,,,,,,,,,,,,,,,,0,13,13,13,,,,,,,,,,,,,,,,,,,,,,,,,,,,,,,,,,,,,,,,,,,,,,,,,,,,,,,,,169.29884674099958,,j,1,0.2174169809986779,None,,,,,,,,,,,,,,,,,,,,,,,,,,,,,,,1,,,,2024-04-05_18h44.45.450,SceneCat_2023_2,2023.2.3,119.57630146101036,2024-04-05 18h44.56.749243 +0200,
stimuli/hhhh.jpg,f,,,,,,,,,,,,,,,,,,,,,,,,,,0,14,14,9,,,,,,,,,,,,,,,,,,,,,,,,,,,,,,,,,,,,,,,,,,,,,,,,,,,,,,,,,172.69520740900043,,j,0,0.1639342790003866,None,,,,,,,,,,,,,,,,,,,,,,,,,,,,,,,1,,,,2024-04-05_18h44.45.450,SceneCat_2023_2,2023.2.3,119.57630146101036,2024-04-05 18h44.56.749243 +0200,
stimuli/zgfdetz.jpg,j,,,,,,,,,,,,,,,,,,,,,,,,,,0,15,15,15,,,,,,,,,,,,,,,,,,,,,,,,,,,,,,,,,,,,,,,,,,,,,,,,,,,,,,,,,176.0195680379984,,j,1,0.13508246800120105,None,,,,,,,,,,,,,,,,,,,,,,,,,,,,,,,1,,,,2024-04-05_18h44.45.450,SceneCat_2023_2,2023.2.3,119.57630146101036,2024-04-05 18h44.56.749243 +0200,
stimuli/asdfghertghvgh.jpg,,1,2,,,,,,,,,,,,,,,,,,,,,,,,,,,,0,0,0,10,,,,,,,,,,,,,,,,,,,,,,,,,,,,,,,,,,,,,,,,,,,,,,,,,,,,,180.62154240299787,,,,,,sicher alt,1.6261998589980067,,,,,,,,,,,,,,,,,,,,,,,,,,,,,1,,,,2024-04-05_18h44.45.450,SceneCat_2023_2,2023.2.3,119.57630146101036,2024-04-05 18h44.56.749243 +0200,
stimuli/khfp.jpg,,1,2,,,,,,,,,,,,,,,,,,,,,,,,,,,,0,1,1,8,,,,,,,,,,,,,,,,,,,,,,,,,,,,,,,,,,,,,,,,,,,,,,,,,,,,,185.57475936099945,,,,,,sicher alt,0.27599140900201746,,,,,,,,,,,,,,,,,,,,,,,,,,,,,1,,,,2024-04-05_18h44.45.450,SceneCat_2023_2,2023.2.3,119.57630146101036,2024-04-05 18h44.56.749243 +0200,
stimuli/oelkjhgfcfghjk.jpg,,1,2,,,,,,,,,,,,,,,,,,,,,,,,,,,,0,2,2,2,,,,,,,,,,,,,,,,,,,,,,,,,,,,,,,,,,,,,,,,,,,,,,,,,,,,,189.1877596509985,,,,,,sicher alt,3.0640082450008777,,,,,,,,,,,,,,,,,,,,,,,,,,,,,1,,,,2024-04-05_18h44.45.450,SceneCat_2023_2,2023.2.3,119.57630146101036,2024-04-05 18h44.56.749243 +0200,
stimuli/fvbjgv.jpg,,1,2,,,,,,,,,,,,,,,,,,,,,,,,,,,,0,3,3,1,,,,,,,,,,,,,,,,,,,,,,,,,,,,,,,,,,,,,,,,,,,,,,,,,,,,,195.57118529500076,,,,,,sicher alt,0.49529850800172426,,,,,,,,,,,,,,,,,,,,,,,,,,,,,1,,,,2024-04-05_18h44.45.450,SceneCat_2023_2,2023.2.3,119.57630146101036,2024-04-05 18h44.56.749243 +0200,
stimuli/lkjhgfdxsdfghj.jpg,,1,2,,,,,,,,,,,,,,,,,,,,,,,,,,,,0,4,4,3,,,,,,,,,,,,,,,,,,,,,,,,,,,,,,,,,,,,,,,,,,,,,,,,,,,,,199.38742341100078,,,,,,sicher alt,0.4586357490006776,,,,,,,,,,,,,,,,,,,,,,,,,,,,,1,,,,2024-04-05_18h44.45.450,SceneCat_2023_2,2023.2.3,119.57630146101036,2024-04-05 18h44.56.749243 +0200,
stimuli/asdfgh.jpg,,3,4,,,,,,,,,,,,,,,,,,,,,,,,,,,,0,5,5,12,,,,,,,,,,,,,,,,,,,,,,,,,,,,,,,,,,,,,,,,,,,,,,,,,,,,,203.17085670099914,,,,,,sicher alt,0.5714438059985696,,,,,,,,,,,,,,,,,,,,,,,,,,,,,1,,,,2024-04-05_18h44.45.450,SceneCat_2023_2,2023.2.3,119.57630146101036,2024-04-05 18h44.56.749243 +0200,
stimuli/ihnbvcfgd.jpg,,1,2,,,,,,,,,,,,,,,,,,,,,,,,,,,,0,6,6,6,,,,,,,,,,,,,,,,,,,,,,,,,,,,,,,,,,,,,,,,,,,,,,,,,,,,,207.0788151889974,,,,,,sicher alt,0.4733285189977323,,,,,,,,,,,,,,,,,,,,,,,,,,,,,1,,,,2024-04-05_18h44.45.450,SceneCat_2023_2,2023.2.3,119.57630146101036,2024-04-05 18h44.56.749243 +0200,
stimuli/asdfghjkloelkjhg.jpg,,1,2,,,,,,,,,,,,,,,,,,,,,,,,,,,,0,7,7,4,,,,,,,,,,,,,,,,,,,,,,,,,,,,,,,,,,,,,,,,,,,,,,,,,,,,,210.88020523999876,,,,,,sicher alt,0.4398934850032674,,,,,,,,,,,,,,,,,,,,,,,,,,,,,1,,,,2024-04-05_18h44.45.450,SceneCat_2023_2,2023.2.3,119.57630146101036,2024-04-05 18h44.56.749243 +0200,
stimuli/uhnbgh.jpg,,3,4,,,,,,,,,,,,,,,,,,,,,,,,,,,,0,8,8,15,,,,,,,,,,,,,,,,,,,,,,,,,,,,,,,,,,,,,,,,,,,,,,,,,,,,,214.64636937499745,,,,,,sicher alt,0.498431255997275,,,,,,,,,,,,,,,,,,,,,,,,,,,,,1,,,,2024-04-05_18h44.45.450,SceneCat_2023_2,2023.2.3,119.57630146101036,2024-04-05 18h44.56.749243 +0200,
stimuli/ztfcvbnhg.jpg,,1,2,,,,,,,,,,,,,,,,,,,,,,,,,,,,0,9,9,0,,,,,,,,,,,,,,,,,,,,,,,,,,,,,,,,,,,,,,,,,,,,,,,,,,,,,218.49600217499756,,,,,,sicher alt,0.501402074998623,,,,,,,,,,,,,,,,,,,,,,,,,,,,,1,,,,2024-04-05_18h44.45.450,SceneCat_2023_2,2023.2.3,119.57630146101036,2024-04-05 18h44.56.749243 +0200,
stimuli/lituryeyxcfvghjk.jpg,,1,2,,,,,,,,,,,,,,,,,,,,,,,,,,,,0,10,10,7,,,,,,,,,,,,,,,,,,,,,,,,,,,,,,,,,,,,,,,,,,,,,,,,,,,,,222.3254701909973,,,,,,sicher alt,0.5554114309998113,,,,,,,,,,,,,,,,,,,,,,,,,,,,,1,,,,2024-04-05_18h44.45.450,SceneCat_2023_2,2023.2.3,119.57630146101036,2024-04-05 18h44.56.749243 +0200,
stimuli/sdfghjklkjbv.jpg,,1,2,,,,,,,,,,,,,,,,,,,,,,,,,,,,0,11,11,5,,,,,,,,,,,,,,,,,,,,,,,,,,,,,,,,,,,,,,,,,,,,,,,,,,,,,226.21219681100047,,,,,,sicher alt,0.4416050740001083,,,,,,,,,,,,,,,,,,,,,,,,,,,,,1,,,,2024-04-05_18h44.45.450,SceneCat_2023_2,2023.2.3,119.57630146101036,2024-04-05 18h44.56.749243 +0200,
stimuli/erthjnbvcfg.jpg,,1,2,,,,,,,,,,,,,,,,,,,,,,,,,,,,0,12,12,11,,,,,,,,,,,,,,,,,,,,,,,,,,,,,,,,,,,,,,,,,,,,,,,,,,,,,229.9871819910004,,,,,,sicher alt,0.4483511260004889,,,,,,,,,,,,,,,,,,,,,,,,,,,,,1,,,,2024-04-05_18h44.45.450,SceneCat_2023_2,2023.2.3,119.57630146101036,2024-04-05 18h44.56.749243 +0200,
stimuli/sdfghj.jpg,,3,4,,,,,,,,,,,,,,,,,,,,,,,,,,,,0,13,13,13,,,,,,,,,,,,,,,,,,,,,,,,,,,,,,,,,,,,,,,,,,,,,,,,,,,,,233.75367887799803,,,,,,sicher alt,0.5391781859980256,,,,,,,,,,,,,,,,,,,,,,,,,,,,,1,,,,2024-04-05_18h44.45.450,SceneCat_2023_2,2023.2.3,119.57630146101036,2024-04-05 18h44.56.749243 +0200,
stimuli/hhhh.jpg,,1,2,,,,,,,,,,,,,,,,,,,,,,,,,,,,0,14,14,9,,,,,,,,,,,,,,,,,,,,,,,,,,,,,,,,,,,,,,,,,,,,,,,,,,,,,237.62055259800036,,,,,,sicher alt,0.47622828100065817,,,,,,,,,,,,,,,,,,,,,,,,,,,,,1,,,,2024-04-05_18h44.45.450,SceneCat_2023_2,2023.2.3,119.57630146101036,2024-04-05 18h44.56.749243 +0200,
stimuli/kjhgfdfgh.jpg,,3,4,,,,,,,,,,,,,,,,,,,,,,,,,,,,0,15,15,14,,,,,,,,,,,,,,,,,,,,,,,,,,,,,,,,,,,,,,,,,,,,,,,,,,,,,241.4368317169974,,,,,,sicher alt,0.5219777730017086,,,,,,,,,,,,,,,,,,,,,,,,,,,,,1,,,,2024-04-05_18h44.45.450,SceneCat_2023_2,2023.2.3,119.57630146101036,2024-04-05 18h44.56.749243 +0200,
stimuli/img_k0m56.jpg,f,,,1,0,0,0,0,0,1,categorization,1,1,1,1,living_room,living_room,target,76.0277777777778,49.9722222222222,36,63,168,high,,,,,,,,,,,0,0,0,0,,,,,,,,,,,,,,,,,0,0,0,0,,,,,,,,,,,,,,,,,,,,,,,,,,,,,249.12268238499746,,,,,,,,249.5139186669985,249.5139186669985,251.82346521699947,j,0,0.12524695800311747,None,,,,,,,,,,,,,,,,,,,,,,1,,,,2024-04-05_18h44.45.450,SceneCat_2023_2,2023.2.3,119.57630146101036,2024-04-05 18h44.56.749243 +0200,
stimuli/img_89dvt.jpg,f,,,1,0,0,0,0,0,1,categorization,1,1,2,2,living_room,living_room,target,79.9032258064516,63,31,71.4516129032258,212,high,,,,,,,,,,,0,0,0,0,,,,,,,,,,,,,,,,,0,1,1,1,,,,,,,,,,,,,,,,,,,,,,,,,,,,,252.30102046799948,,,,,,,,,,253.94321315100024,j,0,0.45425557499766,None,254.7112914319987,,,,,,,,,,,,,,,,,,,,,1,,,,2024-04-05_18h44.45.450,SceneCat_2023_2,2023.2.3,119.57630146101036,2024-04-05 18h44.56.749243 +0200,
stimuli/img_zv0dq.jpg,j,,,1,0,0,0,0,0,1,categorization,1,1,3,3,living_room,bedroom,distractor,78,56.0625,32,67.03125,304,high,,,,,,,,,,,0,0,0,0,,,,,,,,,,,,,,,,,0,2,2,2,,,,,,,,,,,,,,,,,,,,,,,,,,,,,254.7703735219984,,,,,,,,,,256.6933470189979,j,1,0.22468167700208141,None,,,,,,,,,,,,,,,,,,,,,,1,,,,2024-04-05_18h44.45.450,SceneCat_2023_2,2023.2.3,119.57630146101036,2024-04-05 18h44.56.749243 +0200,
stimuli/img_hfj08.jpg,f,,,1,0,0,0,0,0,1,categorization,1,1,4,4,living_room,living_room,target,86.5897435897436,60.6410256410256,39,73.6153846153846,225,high,,,,,,,,,,,0,0,0,0,,,,,,,,,,,,,,,,,0,3,3,3,,,,,,,,,,,,,,,,,,,,,,,,,,,,,257.302912313,,,,,,,,,,258.78127927699825,j,0,0.06028809100098442,None,,,,,,,,,,,,,,,,,,,,,,1,,,,2024-04-05_18h44.45.450,SceneCat_2023_2,2023.2.3,119.57630146101036,2024-04-05 18h44.56.749243 +0200,
stimuli/img_xr3up.jpg,f,,,1,0,0,0,0,0,1,categorization,1,1,5,5,living_room,living_room,target,75.2439024390244,53.4146341463415,41,64.3292682926829,176,high,,,,,,,,,,,0,0,0,0,,,,,,,,,,,,,,,,,0,4,4,4,,,,,,,,,,,,,,,,,,,,,,,,,,,,,259.21300915900065,,,,,,,,,,260.72191203299735,j,0,0.2858664779996616,None,,,,,,,,,,,,,,,,,,,,,,1,,,,2024-04-05_18h44.45.450,SceneCat_2023_2,2023.2.3,119.57630146101036,2024-04-05 18h44.56.749243 +0200,
stimuli/img_hc7o8.jpg,f,,,1,0,0,0,0,0,1,categorization,1,1,6,6,living_room,living_room,target,35.2068965517241,36.4137931034483,29,35.8103448275862,56,low,,,,,,,,,,,0,0,0,0,,,,,,,,,,,,,,,,,0,5,5,5,,,,,,,,,,,,,,,,,,,,,,,,,,,,,261.37735056999736,,,,,,,,,,263.0205542240001,j,0,0.16046141300103045,None,,,,,,,,,,,,,,,,,,,,,,1,,,,2024-04-05_18h44.45.450,SceneCat_2023_2,2023.2.3,119.57630146101036,2024-04-05 18h44.56.749243 +0200,
stimuli/img_injp0.jpg,f,,,1,0,0,0,0,0,1,categorization,1,1,7,7,living_room,living_room,target,63.65625,30.5,32,47.078125,95,low,,,,,,,,,,,0,0,0,0,,,,,,,,,,,,,,,,,0,6,6,6,,,,,,,,,,,,,,,,,,,,,,,,,,,,,263.54378038399955,,,,,,,,,,265.23007209799835,j,0,0.26691060500161257,None,,,,,,,,,,,,,,,,,,,,,,1,,,,2024-04-05_18h44.45.450,SceneCat_2023_2,2023.2.3,119.57630146101036,2024-04-05 18h44.56.749243 +0200,
stimuli/img_fejeo.jpg,f,,,1,0,0,0,0,0,1,categorization,1,1,8,8,living_room,living_room,target,81.0294117647059,65.3235294117647,34,73.1764705882353,223,high,,,,,,,,,,,0,0,0,0,,,,,,,,,,,,,,,,,0,7,7,7,,,,,,,,,,,,,,,,,,,,,,,,,,,,,265.87095528200007,,,,,,,,,,267.00979643900064,j,0,0.5296310470002936,None,267.7751592829991,,,,,,,,,,,,,,,,,,,,,1,,,,2024-04-05_18h44.45.450,SceneCat_2023_2,2023.2.3,119.57630146101036,2024-04-05 18h44.56.749243 +0200,
stimuli/img_kost0.jpg,f,,,1,0,0,0,0,0,1,categorization,1,1,9,9,living_room,living_room,target,64.3030303030303,41.3636363636364,33,52.8333333333333,121,low,,,,,,,,,,,0,0,0,0,,,,,,,,,,,,,,,,,0,8,8,8,,,,,,,,,,,,,,,,,,,,,,,,,,,,,267.91194811400055,,,,,,,,,,269.255576309999,j,0,0.09515461200135178,None,,,,,,,,,,,,,,,,,,,,,,1,,,,2024-04-05_18h44.45.450,SceneCat_2023_2,2023.2.3,119.57630146101036,2024-04-05 18h44.56.749243 +0200,
stimuli/img_xt3jt.jpg,f,,,1,0,0,0,0,0,1,categorization,1,1,10,10,living_room,living_room,target,61.4242424242424,40.8181818181818,33,51.1212121212121,114,low,,,,,,,,,,,0,0,0,0,,,,,,,,,,,,,,,,,0,9,9,9,,,,,,,,,,,,,,,,,,,,,,,,,,,,,269.7293314540002,,,,,,,,,,271.1880433929982,j,0,0.1860774240012688,None,,,,,,,,,,,,,,,,,,,,,,1,,,,2024-04-05_18h44.45.450,SceneCat_2023_2,2023.2.3,119.57630146101036,2024-04-05 18h44.56.749243 +0200,
stimuli/img_00ojb.jpg,f,,,1,0,0,0,0,0,1,categorization,1,1,11,11,living_room,living_room,target,82.2702702702703,67.4324324324324,37,74.8513513513514,239,high,,,,,,,,,,,0,0,0,0,,,,,,,,,,,,,,,,,0,10,10,10,,,,,,,,,,,,,,,,,,,,,,,,,,,,,271.7462350789974,,,,,,,,,,273.5041518020007,j,0,0.2943260870015365,None,,,,,,,,,,,,,,,,,,,,,,1,,,,2024-04-05_18h44.45.450,SceneCat_2023_2,2023.2.3,119.57630146101036,2024-04-05 18h44.56.749243 +0200,
stimuli/img_fmgjx.jpg,f,,,1,0,0,0,0,0,1,categorization,1,1,12,12,living_room,living_room,target,81.5333333333333,56.0666666666667,30,68.8,199,high,,,,,,,,,,,0,0,0,0,,,,,,,,,,,,,,,,,0,11,11,11,,,,,,,,,,,,,,,,,,,,,,,,,,,,,274.15976597699773,,,,,,,,,,275.7783049949976,j,0,0.13151890199878835,None,,,,,,,,,,,,,,,,,,,,,,1,,,,2024-04-05_18h44.45.450,SceneCat_2023_2,2023.2.3,119.57630146101036,2024-04-05 18h44.56.749243 +0200,
stimuli/img_fud7l.jpg,j,,,1,0,0,0,0,0,1,categorization,1,1,13,13,living_room,kitchen,distractor,57.3846153846154,45.1153846153846,26,51.25,204,low,,,,,,,,,,,0,0,0,0,,,,,,,,,,,,,,,,,0,12,12,12,,,,,,,,,,,,,,,,,,,,,,,,,,,,,276.2795139289992,,,,,,,,,,278.2356408079977,j,1,0.1670355099995504,None,,,,,,,,,,,,,,,,,,,,,,1,,,,2024-04-05_18h44.45.450,SceneCat_2023_2,2023.2.3,119.57630146101036,2024-04-05 18h44.56.749243 +0200,
stimuli/img_u1i9n.jpg,j,,,1,0,0,0,0,0,1,categorization,1,1,14,14,living_room,kitchen,distractor,87.4516129032258,61.5161290322581,31,74.4838709677419,648,high,,,,,,,,,,,0,0,0,0,,,,,,,,,,,,,,,,,0,13,13,13,,,,,,,,,,,,,,,,,,,,,,,,,,,,,278.76157100699857,,,,,,,,,,280.7555942069994,j,1,0.14769420500306296,None,,,,,,,,,,,,,,,,,,,,,,1,,,,2024-04-05_18h44.45.450,SceneCat_2023_2,2023.2.3,119.57630146101036,2024-04-05 18h44.56.749243 +0200,
stimuli/img_t4sid.jpg,j,,,1,0,0,0,0,0,1,categorization,1,1,15,15,living_room,kitchen,distractor,59.6206896551724,36,29,47.8103448275862,168,low,,,,,,,,,,,0,0,0,0,,,,,,,,,,,,,,,,,0,14,14,14,,,,,,,,,,,,,,,,,,,,,,,,,,,,,281.2696399999986,,,,,,,,,,282.38648348399875,j,1,0.3441276689991355,None,,,,,,,,,,,,,,,,,,,,,,1,,,,2024-04-05_18h44.45.450,SceneCat_2023_2,2023.2.3,119.57630146101036,2024-04-05 18h44.56.749243 +0200,
stimuli/img_o2lar.jpg,f,,,1,0,0,0,0,0,1,categorization,1,1,16,16,living_room,living_room,target,45.1935483870968,34.6129032258064,31,39.9032258064516,67,low,,,,,,,,,,,0,0,0,0,,,,,,,,,,,,,,,,,0,15,15,15,,,,,,,,,,,,,,,,,,,,,,,,,,,,,283.09318356899894,,,,,,,,,,284.9961887649988,j,0,0.029500208001991268,None,,,,,,,,,,,,,,,,,,,,,,1,,,,2024-04-05_18h44.45.450,SceneCat_2023_2,2023.2.3,119.57630146101036,2024-04-05 18h44.56.749243 +0200,
stimuli/img_wwe90.jpg,j,,,1,0,0,0,0,0,1,categorization,1,1,17,17,living_room,bedroom,distractor,69.6111111111111,51.1111111111111,36,60.3611111111111,220,low,,,,,,,,,,,0,0,0,0,,,,,,,,,,,,,,,,,0,16,16,16,,,,,,,,,,,,,,,,,,,,,,,,,,,,,285.3834476899974,,,,,,,,,,286.7614512879991,j,1,1.0575577000017802,None,287.52632898999946,,,,,,,,,,,,,,,,,,,,,1,,,,2024-04-05_18h44.45.450,SceneCat_2023_2,2023.2.3,119.57630146101036,2024-04-05 18h44.56.749243 +0200,
stimuli/img_u5hpm.jpg,j,,,1,0,0,0,0,0,1,categorization,1,1,18,18,living_room,kitchen,distractor,67.3513513513514,39.1891891891892,37,53.2702702702703,228,low,,,,,,,,,,,0,0,0,0,,,,,,,,,,,,,,,,,0,17,17,17,,,,,,,,,,,,,,,,,,,,,,,,,,,,,288.1892629920003,,,,,,,,,,290.1333125079982,j,1,0.19460184600029606,None,,,,,,,,,,,,,,,,,,,,,,1,,,,2024-04-05_18h44.45.450,SceneCat_2023_2,2023.2.3,119.57630146101036,2024-04-05 18h44.56.749243 +0200,
stimuli/img_xib79.jpg,f,,,1,0,0,0,0,0,1,categorization,1,1,19,19,living_room,living_room,target,79.0322580645161,51.8387096774194,31,65.4354838709677,178,high,,,,,,,,,,,0,0,0,0,,,,,,,,,,,,,,,,,0,18,18,18,,,,,,,,,,,,,,,,,,,,,,,,,,,,,290.6860182780001,,,,,,,,,,292.43969846099935,j,0,0.15358697499686969,None,,,,,,,,,,,,,,,,,,,,,,1,,,,2024-04-05_18h44.45.450,SceneCat_2023_2,2023.2.3,119.57630146101036,2024-04-05 18h44.56.749243 +0200,
stimuli/img_8297a.jpg,f,,,1,0,0,0,0,0,1,categorization,1,1,20,20,living_room,living_room,target,92.0882352941177,76.3823529411765,34,84.2352941176471,288,high,,,,,,,,,,,0,0,0,0,,,,,,,,,,,,,,,,,0,19,19,19,,,,,,,,,,,,,,,,,,,,,,,,,,,,,292.96285836699826,,,,,,,,,,294.7408862989978,j,0,0.11913139500029502,None,,,,,,,,,,,,,,,,,,,,,,1,,,,2024-04-05_18h44.45.450,SceneCat_2023_2,2023.2.3,119.57630146101036,2024-04-05 18h44.56.749243 +0200,
stimuli/img_16kib.jpg,f,,,1,0,0,0,0,0,1,categorization,1,1,21,21,living_room,living_room,target,81.2647058823529,58.8235294117647,34,70.0441176470588,204,high,,,,,,,,,,,0,0,0,0,,,,,,,,,,,,,,,,,0,20,20,20,,,,,,,,,,,,,,,,,,,,,,,,,,,,,295.2196188880007,,,,,,,,,,296.42904257400005,j,0,0.11603562100208364,None,,,,,,,,,,,,,,,,,,,,,,1,,,,2024-04-05_18h44.45.450,SceneCat_2023_2,2023.2.3,119.57630146101036,2024-04-05 18h44.56.749243 +0200,
stimuli/img_9ro1y.jpg,f,,,1,0,0,0,0,0,1,categorization,1,1,22,22,living_room,living_room,target,66.9473684210526,49.2105263157895,38,58.0789473684211,144,low,,,,,,,,,,,0,0,0,0,,,,,,,,,,,,,,,,,0,21,21,21,,,,,,,,,,,,,,,,,,,,,,,,,,,,,296.92674389999956,,,,,,,,,,298.310986425,j,0,0.14883488100167597,None,,,,,,,,,,,,,,,,,,,,,,1,,,,2024-04-05_18h44.45.450,SceneCat_2023_2,2023.2.3,119.57630146101036,2024-04-05 18h44.56.749243 +0200,
stimuli/img_kf7vw.jpg,f,,,1,0,0,0,0,0,1,categorization,1,1,23,23,living_room,living_room,target,88.3142857142857,59.5142857142857,35,73.9142857142857,227,high,,,,,,,,,,,0,0,0,0,,,,,,,,,,,,,,,,,0,22,22,22,,,,,,,,,,,,,,,,,,,,,,,,,,,,,298.81797268899754,,,,,,,,,,300.58195477999834,j,0,0.03089588000148069,None,,,,,,,,,,,,,,,,,,,,,,1,,,,2024-04-05_18h44.45.450,SceneCat_2023_2,2023.2.3,119.57630146101036,2024-04-05 18h44.56.749243 +0200,
stimuli/img_gnxyk.jpg,f,,,1,0,0,0,0,0,1,categorization,1,1,24,24,living_room,living_room,target,86.4864864864865,72.4054054054054,37,79.4459459459459,269,high,,,,,,,,,,,0,0,0,0,,,,,,,,,,,,,,,,,0,23,23,23,,,,,,,,,,,,,,,,,,,,,,,,,,,,,300.9962128389998,,,,,,,,,,302.16526636100025,j,0,0.654483533999155,None,302.93126533100076,,,,,,,,,,,,,,,,,,,,,1,,,,2024-04-05_18h44.45.450,SceneCat_2023_2,2023.2.3,119.57630146101036,2024-04-05 18h44.56.749243 +0200,
stimuli/img_jpldg.jpg,f,,,1,0,0,0,0,0,1,categorization,1,1,25,25,living_room,living_room,target,81.7878787878788,58.1212121212121,33,69.9545454545455,203,high,,,,,,,,,,,0,0,0,0,,,,,,,,,,,,,,,,,0,24,24,24,,,,,,,,,,,,,,,,,,,,,,,,,,,,,303.1791118059991,,,,,,,,,,305.134793852998,j,0,0.15305133099900559,None,,,,,,,,,,,,,,,,,,,,,,1,,,,2024-04-05_18h44.45.450,SceneCat_2023_2,2023.2.3,119.57630146101036,2024-04-05 18h44.56.749243 +0200,
stimuli/img_a6u3n.jpg,f,,,1,0,0,0,0,0,1,categorization,1,1,26,26,living_room,living_room,target,82.6666666666667,61.1212121212121,33,71.8939393939394,215,high,,,,,,,,,,,0,0,0,0,,,,,,,,,,,,,,,,,0,25,25,25,,,,,,,,,,,,,,,,,,,,,,,,,,,,,305.6432921880005,,,,,,,,,,307.435899357999,j,0,0.031563271000777604,None,,,,,,,,,,,,,,,,,,,,,,1,,,,2024-04-05_18h44.45.450,SceneCat_2023_2,2023.2.3,119.57630146101036,2024-04-05 18h44.56.749243 +0200,
stimuli/img_bbs77.jpg,f,,,1,0,0,0,0,0,1,categorization,1,1,27,27,living_room,living_room,target,28.7777777777778,19.0555555555556,36,23.9166666666667,29,low,,,,,,,,,,,0,0,0,0,,,,,,,,,,,,,,,,,0,26,26,26,,,,,,,,,,,,,,,,,,,,,,,,,,,,,307.83757813400007,,,,,,,,,,309.26438688800044,j,0,0.15943534100006218,None,,,,,,,,,,,,,,,,,,,,,,1,,,,2024-04-05_18h44.45.450,SceneCat_2023_2,2023.2.3,119.57630146101036,2024-04-05 18h44.56.749243 +0200,
stimuli/img_qwtnc.jpg,j,,,1,0,0,0,0,0,1,categorization,1,1,28,28,living_room,kitchen,distractor,61.2162162162162,32.5945945945946,37,46.9054054054054,156,low,,,,,,,,,,,0,0,0,0,,,,,,,,,,,,,,,,,0,27,27,27,,,,,,,,,,,,,,,,,,,,,,,,,,,,,309.78623963599966,,,,,,,,,,311.38166668399936,j,1,0.03826775799825555,None,,,,,,,,,,,,,,,,,,,,,,1,,,,2024-04-05_18h44.45.450,SceneCat_2023_2,2023.2.3,119.57630146101036,2024-04-05 18h44.56.749243 +0200,
stimuli/img_jpldg.jpg,j,,,1,0,0,0,0,0,1,memory,None,None,None,None,None,living_room,None,81.7878787878788,58.1212121212121,33,69.9545454545455,203,high,new,1,,,,,,,,,0,0,0,0,,,,,,,,,,,,,,,,,,,,,0,0,0,0,,,,,,,,,,,,,,,,,,,,,,,,,311.8081785809991,,,,,,,,,,,,,,,,sicher alt,0.7307064310007263,,,,,,,,,,,,,,,,,,,1,,,,2024-04-05_18h44.45.450,SceneCat_2023_2,2023.2.3,119.57630146101036,2024-04-05 18h44.56.749243 +0200,
stimuli/img_o2lar.jpg,f,,,1,0,0,0,0,0,1,memory,1,1,16,16,living_room,living_room,target,45.1935483870968,34.6129032258064,31,39.9032258064516,67,low,old,2,,,,,,,,,0,0,0,0,,,,,,,,,,,,,,,,,,,,,0,1,1,1,,,,,,,,,,,,,,,,,,,,,,,,,315.7910846720006,,,,,,,,,,,,,,,,sicher alt,0.5514657690000604,,,,,,,,,,,,,,,,,,,1,,,,2024-04-05_18h44.45.450,SceneCat_2023_2,2023.2.3,119.57630146101036,2024-04-05 18h44.56.749243 +0200,
stimuli/img_00ojb.jpg,f,,,1,0,0,0,0,0,1,memory,1,1,11,11,living_room,living_room,target,82.2702702702703,67.4324324324324,37,74.8513513513514,239,high,old,3,,,,,,,,,0,0,0,0,,,,,,,,,,,,,,,,,,,,,0,2,2,2,,,,,,,,,,,,,,,,,,,,,,,,,317.958584,,,,,,,,,,,,,,,,sicher alt,0.44617066600039834,,,,,,,,,,,,,,,,,,,1,,,,2024-04-05_18h44.45.450,SceneCat_2023_2,2023.2.3,119.57630146101036,2024-04-05 18h44.56.749243 +0200,
stimuli/vfghbvgh.jpg,j,,,1,0,0,0,0,0,1,memory,None,None,None,None,None,None,None,None,None,None,None,None,None,catch,4,,,,,,,,,0,0,0,0,,,,,,,,,,,,,,,,,,,,,0,3,3,3,,,,,,,,,,,,,,,,,,,,,,,,,320.0246720389987,,,,,,,,,,,,,,,,sicher alt,0.500969491997239,,,,,,,,,,,,,,,,,,,1,,,,2024-04-05_18h44.45.450,SceneCat_2023_2,2023.2.3,119.57630146101036,2024-04-05 18h44.56.749243 +0200,
stimuli/img_kost0.jpg,f,,,1,0,0,0,0,0,1,memory,1,1,9,9,living_room,living_room,target,64.3030303030303,41.3636363636364,33,52.8333333333333,121,low,old,5,,,,,,,,,0,0,0,0,,,,,,,,,,,,,,,,,,,,,0,4,4,4,,,,,,,,,,,,,,,,,,,,,,,,,322.1422344319981,,,,,,,,,,,,,,,,sicher alt,0.6351924400005373,,,,,,,,,,,,,,,,,,,1,,,,2024-04-05_18h44.45.450,SceneCat_2023_2,2023.2.3,119.57630146101036,2024-04-05 18h44.56.749243 +0200,
stimuli/img_0t206.jpg,j,,,1,0,0,0,0,0,1,memory,None,None,None,None,None,living_room,None,89.8888888888889,69.1944444444444,36,79.5416666666667,270,high,new,6,,,,,,,,,0,0,0,0,,,,,,,,,,,,,,,,,,,,,0,5,5,5,,,,,,,,,,,,,,,,,,,,,,,,,324.394243333998,,,,,,,,,,,,,,,,sicher alt,0.47601789299733355,,,,,,,,,,,,,,,,,,,1,,,,2024-04-05_18h44.45.450,SceneCat_2023_2,2023.2.3,119.57630146101036,2024-04-05 18h44.56.749243 +0200,
stimuli/gfdfghjgf.jpg,j,,,1,0,0,0,0,0,1,memory,None,None,None,None,None,None,None,None,None,None,None,None,None,catch,7,,,,,,,,,0,0,0,0,,,,,,,,,,,,,,,,,,,,,0,6,6,6,,,,,,,,,,,,,,,,,,,,,,,,,326.48760978099745,,,,,,,,,,,,,,,,sicher alt,0.11202528399735456,,,,,,,,,,,,,,,,,,,1,,,,2024-04-05_18h44.45.450,SceneCat_2023_2,2023.2.3,119.57630146101036,2024-04-05 18h44.56.749243 +0200,
stimuli/img_16kib.jpg,f,,,1,0,0,0,0,0,1,memory,1,1,21,21,living_room,living_room,target,81.2647058823529,58.8235294117647,34,70.0441176470588,204,high,old,8,,,,,,,,,0,0,0,0,,,,,,,,,,,,,,,,,,,,,0,7,7,7,,,,,,,,,,,,,,,,,,,,,,,,,328.21259225799804,,,,,,,,,,,,,,,,sicher alt,0.49937781499829725,,,,,,,,,,,,,,,,,,,1,,,,2024-04-05_18h44.45.450,SceneCat_2023_2,2023.2.3,119.57630146101036,2024-04-05 18h44.56.749243 +0200,
stimuli/img_xr3up.jpg,f,,,1,0,0,0,0,0,1,memory,1,1,5,5,living_room,living_room,target,75.2439024390244,53.4146341463415,41,64.3292682926829,176,high,old,9,,,,,,,,,0,0,0,0,,,,,,,,,,,,,,,,,,,,,0,8,8,8,,,,,,,,,,,,,,,,,,,,,,,,,330.33482214499963,,,,,,,,,,,,,,,,sicher alt,0.4652336489998561,,,,,,,,,,,,,,,,,,,1,,,,2024-04-05_18h44.45.450,SceneCat_2023_2,2023.2.3,119.57630146101036,2024-04-05 18h44.56.749243 +0200,
stimuli/img_gnxyk.jpg,f,,,1,0,0,0,0,0,1,memory,1,1,24,24,living_room,living_room,target,86.4864864864865,72.4054054054054,37,79.4459459459459,269,high,old,10,,,,,,,,,0,0,0,0,,,,,,,,,,,,,,,,,,,,,0,9,9,9,,,,,,,,,,,,,,,,,,,,,,,,,332.42410483799904,,,,,,,,,,,,,,,,sicher alt,0.44361537599979783,,,,,,,,,,,,,,,,,,,1,,,,2024-04-05_18h44.45.450,SceneCat_2023_2,2023.2.3,119.57630146101036,2024-04-05 18h44.56.749243 +0200,
stimuli/img_wwmp0.jpg,j,,,1,0,0,0,0,0,1,memory,None,None,None,None,None,living_room,None,81.0909090909091,61.3939393939394,33,71.2424242424242,211,high,new,11,,,,,,,,,0,0,0,0,,,,,,,,,,,,,,,,,,,,,0,10,10,10,,,,,,,,,,,,,,,,,,,,,,,,,334.48387431099763,,,,,,,,,,,,,,,,sicher alt,0.513588935998996,,,,,,,,,,,,,,,,,,,1,,,,2024-04-05_18h44.45.450,SceneCat_2023_2,2023.2.3,119.57630146101036,2024-04-05 18h44.56.749243 +0200,
stimuli/img_xt3jt.jpg,f,,,1,0,0,0,0,0,1,memory,1,1,10,10,living_room,living_room,target,61.4242424242424,40.8181818181818,33,51.1212121212121,114,low,old,12,,,,,,,,,0,0,0,0,,,,,,,,,,,,,,,,,,,,,0,11,11,11,,,,,,,,,,,,,,,,,,,,,,,,,336.6181323319979,,,,,,,,,,,,,,,,sicher alt,0.32707969000330195,,,,,,,,,,,,,,,,,,,1,,,,2024-04-05_18h44.45.450,SceneCat_2023_2,2023.2.3,119.57630146101036,2024-04-05 18h44.56.749243 +0200,
stimuli/img_hc7o8.jpg,f,,,1,0,0,0,0,0,1,memory,1,1,6,6,living_room,living_room,target,35.2068965517241,36.4137931034483,29,35.8103448275862,56,low,old,13,,,,,,,,,0,0,0,0,,,,,,,,,,,,,,,,,,,,,0,12,12,12,,,,,,,,,,,,,,,,,,,,,,,,,338.5625839639979,,,,,,,,,,,,,,,,sicher alt,0.48373037800047314,,,,,,,,,,,,,,,,,,,1,,,,2024-04-05_18h44.45.450,SceneCat_2023_2,2023.2.3,119.57630146101036,2024-04-05 18h44.56.749243 +0200,
stimuli/img_9ro1y.jpg,f,,,1,0,0,0,0,0,1,memory,1,1,22,22,living_room,living_room,target,66.9473684210526,49.2105263157895,38,58.0789473684211,144,low,old,14,,,,,,,,,0,0,0,0,,,,,,,,,,,,,,,,,,,,,0,13,13,13,,,,,,,,,,,,,,,,,,,,,,,,,340.66426729999876,,,,,,,,,,,,,,,,sicher alt,0.4344367039993813,,,,,,,,,,,,,,,,,,,1,,,,2024-04-05_18h44.45.450,SceneCat_2023_2,2023.2.3,119.57630146101036,2024-04-05 18h44.56.749243 +0200,
stimuli/img_k0m56.jpg,f,,,1,0,0,0,0,0,1,memory,1,1,1,1,living_room,living_room,target,76.0277777777778,49.9722222222222,36,63,168,high,old,15,,,,,,,,,0,0,0,0,,,,,,,,,,,,,,,,,,,,,0,14,14,14,,,,,,,,,,,,,,,,,,,,,,,,,342.72075664599834,,,,,,,,,,,,,,,,sicher alt,0.2134162580005068,,,,,,,,,,,,,,,,,,,1,,,,2024-04-05_18h44.45.450,SceneCat_2023_2,2023.2.3,119.57630146101036,2024-04-05 18h44.56.749243 +0200,
stimuli/img_injp0.jpg,f,,,1,0,0,0,0,0,1,memory,1,1,7,7,living_room,living_room,target,63.65625,30.5,32,47.078125,95,low,old,16,,,,,,,,,0,0,0,0,,,,,,,,,,,,,,,,,,,,,0,15,15,15,,,,,,,,,,,,,,,,,,,,,,,,,344.5527479259981,,,,,,,,,,,,,,,,sicher alt,0.4914590579974174,,,,,,,,,,,,,,,,,,,1,,,,2024-04-05_18h44.45.450,SceneCat_2023_2,2023.2.3,119.57630146101036,2024-04-05 18h44.56.749243 +0200,
stimuli/img_a6u3n.jpg,f,,,1,0,0,0,0,0,1,memory,1,1,26,26,living_room,living_room,target,82.6666666666667,61.1212121212121,33,71.8939393939394,215,high,old,17,,,,,,,,,0,0,0,0,,,,,,,,,,,,,,,,,,,,,0,16,16,16,,,,,,,,,,,,,,,,,,,,,,,,,346.6585331219976,,,,,,,,,,,,,,,,sicher alt,0.5485531019985501,,,,,,,,,,,,,,,,,,,1,,,,2024-04-05_18h44.45.450,SceneCat_2023_2,2023.2.3,119.57630146101036,2024-04-05 18h44.56.749243 +0200,
stimuli/img_bbs77.jpg,f,,,1,0,0,0,0,0,1,memory,1,1,27,27,living_room,living_room,target,28.7777777777778,19.0555555555556,36,23.9166666666667,29,low,old,18,,,,,,,,,0,0,0,0,,,,,,,,,,,,,,,,,,,,,0,17,17,17,,,,,,,,,,,,,,,,,,,,,,,,,348.8239051950004,,,,,,,,,,,,,,,,sicher alt,0.3921632050005428,,,,,,,,,,,,,,,,,,,1,,,,2024-04-05_18h44.45.450,SceneCat_2023_2,2023.2.3,119.57630146101036,2024-04-05 18h44.56.749243 +0200,
stimuli/img_m59op.jpg,j,,,1,0,0,0,0,0,1,memory,None,None,None,None,None,living_room,None,63.9142857142857,46.9714285714286,35,55.4428571428571,133,low,new,19,,,,,,,,,0,0,0,0,,,,,,,,,,,,,,,,,,,,,0,18,18,18,,,,,,,,,,,,,,,,,,,,,,,,,350.83764295199944,,,,,,,,,,,,,,,,sicher alt,0.4045148320001317,,,,,,,,,,,,,,,,,,,1,,,,2024-04-05_18h44.45.450,SceneCat_2023_2,2023.2.3,119.57630146101036,2024-04-05 18h44.56.749243 +0200,
stimuli/img_73pyk.jpg,j,,,1,0,0,0,0,0,1,memory,None,None,None,None,None,living_room,None,70.7837837837838,47.1351351351351,37,58.9594594594595,147,high,new,20,,,,,,,,,0,0,0,0,,,,,,,,,,,,,,,,,,,,,0,19,19,19,,,,,,,,,,,,,,,,,,,,,,,,,352.85832060399844,,,,,,,,,,,,,,,,sicher alt,1.3698338440008229,,,,,,,,,,,,,,,,,,,1,,,,2024-04-05_18h44.45.450,SceneCat_2023_2,2023.2.3,119.57630146101036,2024-04-05 18h44.56.749243 +0200,
stimuli/img_i2l9a.jpg,j,,,1,0,0,0,0,0,1,memory,None,None,None,None,None,living_room,None,22.3823529411765,17.5294117647059,34,19.9558823529412,17,low,new,21,,,,,,,,,0,0,0,0,,,,,,,,,,,,,,,,,,,,,0,20,20,20,,,,,,,,,,,,,,,,,,,,,,,,,355.8437973660002,,,,,,,,,,,,,,,,sicher alt,0.5186506999998528,,,,,,,,,,,,,,,,,,,1,,,,2024-04-05_18h44.45.450,SceneCat_2023_2,2023.2.3,119.57630146101036,2024-04-05 18h44.56.749243 +0200,
stimuli/img_89dvt.jpg,f,,,1,0,0,0,0,0,1,memory,1,1,2,2,living_room,living_room,target,79.9032258064516,63,31,71.4516129032258,212,high,old,22,,,,,,,,,0,0,0,0,,,,,,,,,,,,,,,,,,,,,0,21,21,21,,,,,,,,,,,,,,,,,,,,,,,,,357.9777216149996,,,,,,,,,,,,,,,,sicher alt,0.48451502099851496,,,,,,,,,,,,,,,,,,,1,,,,2024-04-05_18h44.45.450,SceneCat_2023_2,2023.2.3,119.57630146101036,2024-04-05 18h44.56.749243 +0200,
stimuli/img_kf7vw.jpg,f,,,1,0,0,0,0,0,1,memory,1,1,23,23,living_room,living_room,target,88.3142857142857,59.5142857142857,35,73.9142857142857,227,high,old,23,,,,,,,,,0,0,0,0,,,,,,,,,,,,,,,,,,,,,0,22,22,22,,,,,,,,,,,,,,,,,,,,,,,,,360.07778125099867,,,,,,,,,,,,,,,,sicher alt,0.6537447500013513,,,,,,,,,,,,,,,,,,,1,,,,2024-04-05_18h44.45.450,SceneCat_2023_2,2023.2.3,119.57630146101036,2024-04-05 18h44.56.749243 +0200,
stimuli/img_fejeo.jpg,f,,,1,0,0,0,0,0,1,memory,1,1,8,8,living_room,living_room,target,81.0294117647059,65.3235294117647,34,73.1764705882353,223,high,old,24,,,,,,,,,0,0,0,0,,,,,,,,,,,,,,,,,,,,,0,23,23,23,,,,,,,,,,,,,,,,,,,,,,,,,362.343395519998,,,,,,,,,,,,,,,,sicher alt,0.1709146020002663,,,,,,,,,,,,,,,,,,,1,,,,2024-04-05_18h44.45.450,SceneCat_2023_2,2023.2.3,119.57630146101036,2024-04-05 18h44.56.749243 +0200,
stimuli/img_hfj08.jpg,f,,,1,0,0,0,0,0,1,memory,1,1,4,4,living_room,living_room,target,86.5897435897436,60.6410256410256,39,73.6153846153846,225,high,old,25,,,,,,,,,0,0,0,0,,,,,,,,,,,,,,,,,,,,,0,24,24,24,,,,,,,,,,,,,,,,,,,,,,,,,364.1239875459978,,,,,,,,,,,,,,,,sicher alt,0.4698445289977826,,,,,,,,,,,,,,,,,,,1,,,,2024-04-05_18h44.45.450,SceneCat_2023_2,2023.2.3,119.57630146101036,2024-04-05 18h44.56.749243 +0200,
stimuli/img_xib79.jpg,f,,,1,0,0,0,0,0,1,memory,1,1,19,19,living_room,living_room,target,79.0322580645161,51.8387096774194,31,65.4354838709677,178,high,old,26,,,,,,,,,0,0,0,0,,,,,,,,,,,,,,,,,,,,,0,25,25,25,,,,,,,,,,,,,,,,,,,,,,,,,366.20749228299974,,,,,,,,,,,,,,,,sicher alt,0.4537333980006224,,,,,,,,,,,,,,,,,,,1,,,,2024-04-05_18h44.45.450,SceneCat_2023_2,2023.2.3,119.57630146101036,2024-04-05 18h44.56.749243 +0200,
stimuli/img_fmgjx.jpg,f,,,1,0,0,0,0,0,1,memory,1,1,12,12,living_room,living_room,target,81.5333333333333,56.0666666666667,30,68.8,199,high,old,27,,,,,,,,,0,0,0,0,,,,,,,,,,,,,,,,,,,,,0,26,26,26,,,,,,,,,,,,,,,,,,,,,,,,,368.2780489430006,,,,,,,,,,,,,,,,sicher alt,0.42485415500050294,,,,,,,,,,,,,,,,,,,1,,,,2024-04-05_18h44.45.450,SceneCat_2023_2,2023.2.3,119.57630146101036,2024-04-05 18h44.56.749243 +0200,
stimuli/img_jpldg.jpg,f,,,1,0,0,0,0,0,1,memory,1,1,25,25,living_room,living_room,target,81.7878787878788,58.1212121212121,33,69.9545454545455,203,high,old,28,,,,,,,,,0,0,0,0,,,,,,,,,,,,,,,,,,,,,0,27,27,27,,,,,,,,,,,,,,,,,,,,,,,,,370.32960734899825,,,,,,,,,,,,,,,,sicher alt,0.5012725140004477,,,,,,,,,,,,,,,,,,,1,,,,2024-04-05_18h44.45.450,SceneCat_2023_2,2023.2.3,119.57630146101036,2024-04-05 18h44.56.749243 +0200,
stimuli/img_53nbn.jpg,j,,,1,0,0,0,0,0,1,memory,None,None,None,None,None,living_room,None,73.7647058823529,51.2647058823529,34,62.5147058823529,166,high,new,29,,,,,,,,,0,0,0,0,,,,,,,,,,,,,,,,,,,,,0,28,28,28,,,,,,,,,,,,,,,,,,,,,,,,,372.4436749089982,,,,,,,,,,,,,,,,sicher alt,0.4691966099999263,,,,,,,,,,,,,,,,,,,1,,,,2024-04-05_18h44.45.450,SceneCat_2023_2,2023.2.3,119.57630146101036,2024-04-05 18h44.56.749243 +0200,
stimuli/img_8297a.jpg,f,,,1,0,0,0,0,0,1,memory,1,1,20,20,living_room,living_room,target,92.0882352941177,76.3823529411765,34,84.2352941176471,288,high,old,30,,,,,,,,,0,0,0,0,,,,,,,,,,,,,,,,,,,,,0,29,29,29,,,,,,,,,,,,,,,,,,,,,,,,,374.5309196189992,,,,,,,,,,,,,,,,sicher alt,0.40353483600119944,,,,,,,,,,,,,,,,,,,1,,,,2024-04-05_18h44.45.450,SceneCat_2023_2,2023.2.3,119.57630146101036,2024-04-05 18h44.56.749243 +0200,
,,,,1,0,0,0,0,0,,,,,,,,,,,,,,,,,,,,,,,,,,0,0,0,0,,,,,,,,,,,,,,,,,,,,,,,,,,,,,,,,,,,,,,,,,,,,,,,,,,,,,,,,,,,,,,,,,,,,,,,,,,,,,,,,,,,,,1,,,,2024-04-05_18h44.45.450,SceneCat_2023_2,2023.2.3,119.57630146101036,2024-04-05 18h44.56.749243 +0200,
stimuli/img_2na1o.jpg,f,,,0,1,0,0,0,0,1,categorization,2,1,1,29,kitchen,kitchen,target,65.3783783783784,50.3243243243243,37,57.8513513513513,295,low,,,,,,,,,,,0,1,1,1,0,0,0,0,,,,,,,,,,,,,,,,,,,,,,,,,,,,,,,,,,,,,,,,,,,,,378.489141217,,,,,,,,,,,,,,,,,,381.5464943929983,j,0,3.7495035600004485,None,,,,,,,,,,,,,,1,,,,2024-04-05_18h44.45.450,SceneCat_2023_2,2023.2.3,119.57630146101036,2024-04-05 18h44.56.749243 +0200,
stimuli/img_swx2d.jpg,f,,,0,1,0,0,0,0,1,categorization,2,1,2,30,kitchen,kitchen,target,69.90625,33.6875,32,51.796875,208,low,,,,,,,,,,,0,1,1,1,0,1,1,1,,,,,,,,,,,,,,,,,,,,,,,,,,,,,,,,,,,,,,,,,,,,,385.66910741299944,,,,,,,,,,,,,,,,,,386.7511956369999,j,0,0.08288526500109583,None,,,,,,,,,,,,,,1,,,,2024-04-05_18h44.45.450,SceneCat_2023_2,2023.2.3,119.57630146101036,2024-04-05 18h44.56.749243 +0200,
stimuli/img_rych7.jpg,j,,,0,1,0,0,0,0,1,categorization,2,1,3,31,kitchen,living_room,distractor,30.9444444444444,25.3888888888889,36,28.1666666666667,41,low,,,,,,,,,,,0,1,1,1,0,2,2,2,,,,,,,,,,,,,,,,,,,,,,,,,,,,,,,,,,,,,,,,,,,,,387.1957494439994,,,,,,,,,,,,,,,,,,388.36923931899946,j,1,0.07434150399785722,None,,,,,,,,,,,,,,1,,,,2024-04-05_18h44.45.450,SceneCat_2023_2,2023.2.3,119.57630146101036,2024-04-05 18h44.56.749243 +0200,
stimuli/img_1m0fn.jpg,f,,,0,1,0,0,0,0,1,categorization,2,1,4,32,kitchen,kitchen,target,82.1333333333333,66.8333333333333,30,74.4833333333333,647,high,,,,,,,,,,,0,1,1,1,0,3,3,3,,,,,,,,,,,,,,,,,,,,,,,,,,,,,,,,,,,,,,,,,,,,,388.80478593799853,,,,,,,,,,,,,,,,,,390.7006010160003,j,0,0.43319967800198356,None,,,,,,,,,,,,,,1,,,,2024-04-05_18h44.45.450,SceneCat_2023_2,2023.2.3,119.57630146101036,2024-04-05 18h44.56.749243 +0200,
stimuli/img_vbrb7.jpg,f,,,0,1,0,0,0,0,1,categorization,2,1,5,33,kitchen,kitchen,target,84.7857142857143,74.1071428571429,28,79.4464285714286,713,high,,,,,,,,,,,0,1,1,1,0,4,4,4,,,,,,,,,,,,,,,,,,,,,,,,,,,,,,,,,,,,,,,,,,,,,391.5029952369987,,,,,,,,,,,,,,,,,,392.6185079099996,j,0,0.28892782500042813,None,,,,,,,,,,,,,,1,,,,2024-04-05_18h44.45.450,SceneCat_2023_2,2023.2.3,119.57630146101036,2024-04-05 18h44.56.749243 +0200,
stimuli/img_diq9d.jpg,f,,,0,1,0,0,0,0,1,categorization,2,1,6,34,kitchen,kitchen,target,81,65.6046511627907,43,73.3023255813954,619,high,,,,,,,,,,,0,1,1,1,0,5,5,5,,,,,,,,,,,,,,,,,,,,,,,,,,,,,,,,,,,,,,,,,,,,,393.27904819299874,,,,,,,,,,,,,,,,,,395.26510423599757,j,0,0.3491653490018507,None,,,,,,,,,,,,,,1,,,,2024-04-05_18h44.45.450,SceneCat_2023_2,2023.2.3,119.57630146101036,2024-04-05 18h44.56.749243 +0200,
stimuli/img_78zcn.jpg,f,,,0,1,0,0,0,0,1,categorization,2,1,7,35,kitchen,kitchen,target,69.4814814814815,44.2592592592593,27,56.8703703703704,278,low,,,,,,,,,,,0,1,1,1,0,6,6,6,,,,,,,,,,,,,,,,,,,,,,,,,,,,,,,,,,,,,,,,,,,,,395.98035425799753,,,,,,,,,,,,,,,,,,397.60378111200043,j,0,0.11955239700182574,None,,,,,,,,,,,,,,1,,,,2024-04-05_18h44.45.450,SceneCat_2023_2,2023.2.3,119.57630146101036,2024-04-05 18h44.56.749243 +0200,
stimuli/img_m2gan.jpg,f,,,0,1,0,0,0,0,1,categorization,2,1,8,36,kitchen,kitchen,target,76.2121212121212,54.2424242424242,33,65.2272727272727,446,high,,,,,,,,,,,0,1,1,1,0,7,7,7,,,,,,,,,,,,,,,,,,,,,,,,,,,,,,,,,,,,,,,,,,,,,398.09378595199814,,,,,,,,,,,,,,,,,,399.8752787679987,j,0,0.2396053230004327,None,,,,,,,,,,,,,,1,,,,2024-04-05_18h44.45.450,SceneCat_2023_2,2023.2.3,119.57630146101036,2024-04-05 18h44.56.749243 +0200,
stimuli/img_wixv2.jpg,j,,,0,1,0,0,0,0,1,categorization,2,1,9,37,kitchen,living_room,distractor,29.375,24.85,40,27.1125,38,low,,,,,,,,,,,0,1,1,1,0,8,8,8,,,,,,,,,,,,,,,,,,,,,,,,,,,,,,,,,,,,,,,,,,,,,400.47562342699894,,,,,,,,,,,,,,,,,,401.6528840989995,j,1,0.33935738199943444,None,,,,,,,,,,,,,,1,,,,2024-04-05_18h44.45.450,SceneCat_2023_2,2023.2.3,119.57630146101036,2024-04-05 18h44.56.749243 +0200,
stimuli/img_vwrot.jpg,j,,,0,1,0,0,0,0,1,categorization,2,1,10,38,kitchen,bedroom,distractor,76.9230769230769,62.0769230769231,26,69.5,329.5,high,,,,,,,,,,,0,1,1,1,0,9,9,9,,,,,,,,,,,,,,,,,,,,,,,,,,,,,,,,,,,,,,,,,,,,,402.3602632969996,,,,,,,,,,,,,,,,,,403.9983144189973,j,1,0.02321890799794346,None,,,,,,,,,,,,,,1,,,,2024-04-05_18h44.45.450,SceneCat_2023_2,2023.2.3,119.57630146101036,2024-04-05 18h44.56.749243 +0200,
stimuli/img_3eusg.jpg,f,,,0,1,0,0,0,0,1,categorization,2,1,11,39,kitchen,kitchen,target,70.64,53.36,25,62,377,high,,,,,,,,,,,0,1,1,1,0,10,10,10,,,,,,,,,,,,,,,,,,,,,,,,,,,,,,,,,,,,,,,,,,,,,404.3849886349999,,,,,,,,,,,,,,,,,,405.42105436400016,j,0,0.20189787999697728,None,,,,,,,,,,,,,,1,,,,2024-04-05_18h44.45.450,SceneCat_2023_2,2023.2.3,119.57630146101036,2024-04-05 18h44.56.749243 +0200,
stimuli/img_uegbb.jpg,f,,,0,1,0,0,0,0,1,categorization,2,1,12,40,kitchen,kitchen,target,78.4390243902439,61.0243902439024,41,69.7317073170732,543,high,,,,,,,,,,,0,1,1,1,0,11,11,11,,,,,,,,,,,,,,,,,,,,,,,,,,,,,,,,,,,,,,,,,,,,,405.9921322400005,,,,,,,,,,,,,,,,,,407.9842731989993,j,0,0.44206155000210856,None,,,,,,,,,,,,,,1,,,,2024-04-05_18h44.45.450,SceneCat_2023_2,2023.2.3,119.57630146101036,2024-04-05 18h44.56.749243 +0200,
stimuli/img_r8rvk.jpg,j,,,0,1,0,0,0,0,1,categorization,2,1,13,41,kitchen,bedroom,distractor,76.5,48.9318181818182,44,62.7159090909091,242,low,,,,,,,,,,,0,1,1,1,0,12,12,12,,,,,,,,,,,,,,,,,,,,,,,,,,,,,,,,,,,,,,,,,,,,,408.7929870049993,,,,,,,,,,,,,,,,,,410.75438602400027,j,1,0.0878755639969313,None,,,,,,,,,,,,,,1,,,,2024-04-05_18h44.45.450,SceneCat_2023_2,2023.2.3,119.57630146101036,2024-04-05 18h44.56.749243 +0200,
stimuli/img_cjvod.jpg,f,,,0,1,0,0,0,0,1,categorization,2,1,14,42,kitchen,kitchen,target,74.72,50.24,25,62.48,385,high,,,,,,,,,,,0,1,1,1,0,13,13,13,,,,,,,,,,,,,,,,,,,,,,,,,,,,,,,,,,,,,,,,,,,,,411.21084808199885,,,,,,,,,,,,,,,,,,412.8925542939978,j,0,0.2637081530010619,None,,,,,,,,,,,,,,1,,,,2024-04-05_18h44.45.450,SceneCat_2023_2,2023.2.3,119.57630146101036,2024-04-05 18h44.56.749243 +0200,
stimuli/img_z2mg7.jpg,f,,,0,1,0,0,0,0,1,categorization,2,1,15,43,kitchen,kitchen,target,16.1379310344828,8.03448275862069,29,12.0862068965517,6,low,,,,,,,,,,,0,1,1,1,0,14,14,14,,,,,,,,,,,,,,,,,,,,,,,,,,,,,,,,,,,,,,,,,,,,,413.5211345479984,,,,,,,,,,,,,,,,,,415.04240720899907,j,0,0.2889139949984383,None,,,,,,,,,,,,,,1,,,,2024-04-05_18h44.45.450,SceneCat_2023_2,2023.2.3,119.57630146101036,2024-04-05 18h44.56.749243 +0200,
stimuli/img_c0me7.jpg,f,,,0,1,0,0,0,0,1,categorization,2,1,16,44,kitchen,kitchen,target,68.4,45.6285714285714,35,57.0142857142857,281,low,,,,,,,,,,,0,1,1,1,0,15,15,15,,,,,,,,,,,,,,,,,,,,,,,,,,,,,,,,,,,,,,,,,,,,,415.7043447239994,,,,,,,,,,,,,,,,,,417.4418664490004,j,0,0.07597494500078028,None,,,,,,,,,,,,,,1,,,,2024-04-05_18h44.45.450,SceneCat_2023_2,2023.2.3,119.57630146101036,2024-04-05 18h44.56.749243 +0200,
stimuli/img_s37yz.jpg,f,,,0,1,0,0,0,0,1,categorization,2,1,17,45,kitchen,kitchen,target,83.52,69.88,25,76.7,680,high,,,,,,,,,,,0,1,1,1,0,16,16,16,,,,,,,,,,,,,,,,,,,,,,,,,,,,,,,,,,,,,,,,,,,,,417.88255198099796,,,,,,,,,,,,,,,,,,419.74835825300033,j,0,0.1424477599975944,None,,,,,,,,,,,,,,1,,,,2024-04-05_18h44.45.450,SceneCat_2023_2,2023.2.3,119.57630146101036,2024-04-05 18h44.56.749243 +0200,
stimuli/img_bdqmg.jpg,j,,,0,1,0,0,0,0,1,categorization,2,1,18,46,kitchen,living_room,distractor,47.9722222222222,28.5555555555556,36,38.2638888888889,64,low,,,,,,,,,,,0,1,1,1,0,17,17,17,,,,,,,,,,,,,,,,,,,,,,,,,,,,,,,,,,,,,,,,,,,,,420.2546318519999,,,,,,,,,,,,,,,,,,422.07100338799864,j,1,0.21446931600075914,None,,,,,,,,,,,,,,1,,,,2024-04-05_18h44.45.450,SceneCat_2023_2,2023.2.3,119.57630146101036,2024-04-05 18h44.56.749243 +0200,
stimuli/img_ncr40.jpg,f,,,0,1,0,0,0,0,1,categorization,2,1,19,47,kitchen,kitchen,target,76.92,52.68,25,64.8,437,high,,,,,,,,,,,0,1,1,1,0,18,18,18,,,,,,,,,,,,,,,,,,,,,,,,,,,,,,,,,,,,,,,,,,,,,422.6453717330005,,,,,,,,,,,,,,,,,,424.5341198669994,j,0,0.11310902100012754,None,,,,,,,,,,,,,,1,,,,2024-04-05_18h44.45.450,SceneCat_2023_2,2023.2.3,119.57630146101036,2024-04-05 18h44.56.749243 +0200,
stimuli/img_lszzj.jpg,f,,,0,1,0,0,0,0,1,categorization,2,1,20,48,kitchen,kitchen,target,68.1428571428571,50.7142857142857,21,59.4285714285714,317,low,,,,,,,,,,,0,1,1,1,0,19,19,19,,,,,,,,,,,,,,,,,,,,,,,,,,,,,,,,,,,,,,,,,,,,,425.0355991719989,,,,,,,,,,,,,,,,,,426.5325575539973,j,0,0.09061262400064152,None,,,,,,,,,,,,,,1,,,,2024-04-05_18h44.45.450,SceneCat_2023_2,2023.2.3,119.57630146101036,2024-04-05 18h44.56.749243 +0200,
stimuli/img_epedy.jpg,f,,,0,1,0,0,0,0,1,categorization,2,1,21,49,kitchen,kitchen,target,79.4782608695652,58.9565217391304,23,69.2173913043478,530,high,,,,,,,,,,,0,1,1,1,0,20,20,20,,,,,,,,,,,,,,,,,,,,,,,,,,,,,,,,,,,,,,,,,,,,,427.0029195129973,,,,,,,,,,,,,,,,,,428.1095922259992,j,0,0.30115844499960076,None,,,,,,,,,,,,,,1,,,,2024-04-05_18h44.45.450,SceneCat_2023_2,2023.2.3,119.57630146101036,2024-04-05 18h44.56.749243 +0200,
stimuli/img_0mhms.jpg,f,,,0,1,0,0,0,0,1,categorization,2,1,22,50,kitchen,kitchen,target,78,55.6857142857143,35,66.8428571428571,481,high,,,,,,,,,,,0,1,1,1,0,21,21,21,,,,,,,,,,,,,,,,,,,,,,,,,,,,,,,,,,,,,,,,,,,,,428.7749781579987,,,,,,,,,,,,,,,,,,430.30118579400005,j,0,0.1571215330004634,None,,,,,,,,,,,,,,1,,,,2024-04-05_18h44.45.450,SceneCat_2023_2,2023.2.3,119.57630146101036,2024-04-05 18h44.56.749243 +0200,
stimuli/img_t4xel.jpg,f,,,0,1,0,0,0,0,1,categorization,2,1,23,51,kitchen,kitchen,target,86.875,66.5625,32,76.71875,681,high,,,,,,,,,,,0,1,1,1,0,22,22,22,,,,,,,,,,,,,,,,,,,,,,,,,,,,,,,,,,,,,,,,,,,,,430.82094353999855,,,,,,,,,,,,,,,,,,432.17508680600076,j,0,0.1230133310018573,None,,,,,,,,,,,,,,1,,,,2024-04-05_18h44.45.450,SceneCat_2023_2,2023.2.3,119.57630146101036,2024-04-05 18h44.56.749243 +0200,
stimuli/img_kombf.jpg,f,,,0,1,0,0,0,0,1,categorization,2,1,24,52,kitchen,kitchen,target,82.9736842105263,66.8684210526316,38,74.9210526315789,657,high,,,,,,,,,,,0,1,1,1,0,23,23,23,,,,,,,,,,,,,,,,,,,,,,,,,,,,,,,,,,,,,,,,,,,,,432.6686829270002,,,,,,,,,,,,,,,,,,434.31002022399844,j,0,0.030650032000266947,None,,,,,,,,,,,,,,1,,,,2024-04-05_18h44.45.450,SceneCat_2023_2,2023.2.3,119.57630146101036,2024-04-05 18h44.56.749243 +0200,
stimuli/img_otj9x.jpg,j,,,0,1,0,0,0,0,1,categorization,2,1,25,53,kitchen,bedroom,distractor,35.3636363636364,10.6666666666667,33,23.0151515151515,33,low,,,,,,,,,,,0,1,1,1,0,24,24,24,,,,,,,,,,,,,,,,,,,,,,,,,,,,,,,,,,,,,,,,,,,,,434.71053727099934,,,,,,,,,,,,,,,,,,436.7217844449988,j,1,0.07882744100061245,None,,,,,,,,,,,,,,1,,,,2024-04-05_18h44.45.450,SceneCat_2023_2,2023.2.3,119.57630146101036,2024-04-05 18h44.56.749243 +0200,
stimuli/img_5p2ql.jpg,j,,,0,1,0,0,0,0,1,categorization,2,1,26,54,kitchen,bedroom,distractor,90.7,75.4,40,83.05,477,high,,,,,,,,,,,0,1,1,1,0,25,25,25,,,,,,,,,,,,,,,,,,,,,,,,,,,,,,,,,,,,,,,,,,,,,437.16803787000026,,,,,,,,,,,,,,,,,,438.933355060999,j,1,0.5047241130014299,None,,,,,,,,,,,,,,1,,,,2024-04-05_18h44.45.450,SceneCat_2023_2,2023.2.3,119.57630146101036,2024-04-05 18h44.56.749243 +0200,
stimuli/img_isw29.jpg,f,,,0,1,0,0,0,0,1,categorization,2,1,27,55,kitchen,kitchen,target,52.1785714285714,23.3928571428571,28,37.7857142857143,75,low,,,,,,,,,,,0,1,1,1,0,26,26,26,,,,,,,,,,,,,,,,,,,,,,,,,,,,,,,,,,,,,,,,,,,,,439.8016897960006,,,,,,,,,,,,,,,,,,440.9879679149999,j,0,0.6427579189985408,None,,,,,,,,,,,,,,1,,,,2024-04-05_18h44.45.450,SceneCat_2023_2,2023.2.3,119.57630146101036,2024-04-05 18h44.56.749243 +0200,
stimuli/img_aqu2d.jpg,f,,,0,1,0,0,0,0,1,categorization,2,1,28,56,kitchen,kitchen,target,81.1470588235294,67.5588235294118,34,74.3529411764706,641,high,,,,,,,,,,,0,1,1,1,0,27,27,27,,,,,,,,,,,,,,,,,,,,,,,,,,,,,,,,,,,,,,,,,,,,,441.9944552429988,,,,,,,,,,,,,,,,,,443.44116730099995,j,0,0.3439920210003038,None,,,,,,,,,,,,,,1,,,,2024-04-05_18h44.45.450,SceneCat_2023_2,2023.2.3,119.57630146101036,2024-04-05 18h44.56.749243 +0200,
stimuli/img_78zcn.jpg,f,,,0,1,0,0,0,0,1,memory,2,1,7,35,kitchen,kitchen,target,69.4814814814815,44.2592592592593,27,56.8703703703704,278,low,old,31,,,,,,,,,0,1,1,1,,,,,0,0,0,0,,,,,,,,,,,,,,,,,,,,,,,,,,,,,,,,,,,,,,,,,444.1715874139991,,,,,,,,,,,,,,,,sicher alt,0.5234730039992428,,,,,,,,,,,,,,,,,,,1,,,,2024-04-05_18h44.45.450,SceneCat_2023_2,2023.2.3,119.57630146101036,2024-04-05 18h44.56.749243 +0200,
stimuli/img_diq9d.jpg,f,,,0,1,0,0,0,0,1,memory,2,1,6,34,kitchen,kitchen,target,81,65.6046511627907,43,73.3023255813954,619,high,old,32,,,,,,,,,0,1,1,1,,,,,0,1,1,1,,,,,,,,,,,,,,,,,,,,,,,,,,,,,,,,,,,,,,,,,448.9349173240007,,,,,,,,,,,,,,,,sicher alt,0.49418036099814344,,,,,,,,,,,,,,,,,,,1,,,,2024-04-05_18h44.45.450,SceneCat_2023_2,2023.2.3,119.57630146101036,2024-04-05 18h44.56.749243 +0200,
stimuli/img_ncr40.jpg,f,,,0,1,0,0,0,0,1,memory,2,1,19,47,kitchen,kitchen,target,76.92,52.68,25,64.8,437,high,old,33,,,,,,,,,0,1,1,1,,,,,0,2,2,2,,,,,,,,,,,,,,,,,,,,,,,,,,,,,,,,,,,,,,,,,450.9068552099998,,,,,,,,,,,,,,,,sicher alt,0.5546735780008021,,,,,,,,,,,,,,,,,,,1,,,,2024-04-05_18h44.45.450,SceneCat_2023_2,2023.2.3,119.57630146101036,2024-04-05 18h44.56.749243 +0200,
stimuli/img_uegbb.jpg,f,,,0,1,0,0,0,0,1,memory,2,1,12,40,kitchen,kitchen,target,78.4390243902439,61.0243902439024,41,69.7317073170732,543,high,old,34,,,,,,,,,0,1,1,1,,,,,0,3,3,3,,,,,,,,,,,,,,,,,,,,,,,,,,,,,,,,,,,,,,,,,452.9352002380001,,,,,,,,,,,,,,,,sicher alt,0.47364162699886947,,,,,,,,,,,,,,,,,,,1,,,,2024-04-05_18h44.45.450,SceneCat_2023_2,2023.2.3,119.57630146101036,2024-04-05 18h44.56.749243 +0200,
stimuli/img_c0me7.jpg,f,,,0,1,0,0,0,0,1,memory,2,1,16,44,kitchen,kitchen,target,68.4,45.6285714285714,35,57.0142857142857,281,low,old,35,,,,,,,,,0,1,1,1,,,,,0,4,4,4,,,,,,,,,,,,,,,,,,,,,,,,,,,,,,,,,,,,,,,,,454.8843816749977,,,,,,,,,,,,,,,,sicher alt,0.4575143289985135,,,,,,,,,,,,,,,,,,,1,,,,2024-04-05_18h44.45.450,SceneCat_2023_2,2023.2.3,119.57630146101036,2024-04-05 18h44.56.749243 +0200,
stimuli/img_0mhms.jpg,f,,,0,1,0,0,0,0,1,memory,2,1,22,50,kitchen,kitchen,target,78,55.6857142857143,35,66.8428571428571,481,high,old,36,,,,,,,,,0,1,1,1,,,,,0,5,5,5,,,,,,,,,,,,,,,,,,,,,,,,,,,,,,,,,,,,,,,,,456.83370051999736,,,,,,,,,,,,,,,,sicher alt,0.41332769699874916,,,,,,,,,,,,,,,,,,,1,,,,2024-04-05_18h44.45.450,SceneCat_2023_2,2023.2.3,119.57630146101036,2024-04-05 18h44.56.749243 +0200,
stimuli/img_vbrb7.jpg,f,,,0,1,0,0,0,0,1,memory,2,1,5,33,kitchen,kitchen,target,84.7857142857143,74.1071428571429,28,79.4464285714286,713,high,old,37,,,,,,,,,0,1,1,1,,,,,0,6,6,6,,,,,,,,,,,,,,,,,,,,,,,,,,,,,,,,,,,,,,,,,458.72065789099724,,,,,,,,,,,,,,,,sicher alt,0.4575551929992798,,,,,,,,,,,,,,,,,,,1,,,,2024-04-05_18h44.45.450,SceneCat_2023_2,2023.2.3,119.57630146101036,2024-04-05 18h44.56.749243 +0200,
stimuli/img_2na1o.jpg,f,,,0,1,0,0,0,0,1,memory,2,1,1,29,kitchen,kitchen,target,65.3783783783784,50.3243243243243,37,57.8513513513513,295,low,old,38,,,,,,,,,0,1,1,1,,,,,0,7,7,7,,,,,,,,,,,,,,,,,,,,,,,,,,,,,,,,,,,,,,,,,460.65941217699947,,,,,,,,,,,,,,,,sicher alt,0.48639083299713093,,,,,,,,,,,,,,,,,,,1,,,,2024-04-05_18h44.45.450,SceneCat_2023_2,2023.2.3,119.57630146101036,2024-04-05 18h44.56.749243 +0200,
stimuli/img_lszzj.jpg,f,,,0,1,0,0,0,0,1,memory,2,1,20,48,kitchen,kitchen,target,68.1428571428571,50.7142857142857,21,59.4285714285714,317,low,old,39,,,,,,,,,0,1,1,1,,,,,0,8,8,8,,,,,,,,,,,,,,,,,,,,,,,,,,,,,,,,,,,,,,,,,462.62776802299777,,,,,,,,,,,,,,,,sicher alt,0.3116607820011268,,,,,,,,,,,,,,,,,,,1,,,,2024-04-05_18h44.45.450,SceneCat_2023_2,2023.2.3,119.57630146101036,2024-04-05 18h44.56.749243 +0200,
stimuli/img_vbgti.jpg,j,,,0,1,0,0,0,0,1,memory,None,None,None,None,None,kitchen,None,56.0810810810811,39.7027027027027,37,47.8918918918919,170,low,new,40,,,,,,,,,0,1,1,1,,,,,0,9,9,9,,,,,,,,,,,,,,,,,,,,,,,,,,,,,,,,,,,,,,,,,464.4182634209974,,,,,,,,,,,,,,,,sicher alt,0.39620285799901467,,,,,,,,,,,,,,,,,,,1,,,,2024-04-05_18h44.45.450,SceneCat_2023_2,2023.2.3,119.57630146101036,2024-04-05 18h44.56.749243 +0200,
stimuli/img_m2gan.jpg,f,,,0,1,0,0,0,0,1,memory,2,1,8,36,kitchen,kitchen,target,76.2121212121212,54.2424242424242,33,65.2272727272727,446,high,old,41,,,,,,,,,0,1,1,1,,,,,0,10,10,10,,,,,,,,,,,,,,,,,,,,,,,,,,,,,,,,,,,,,,,,,466.29775522099953,,,,,,,,,,,,,,,,sicher alt,0.5241203500008851,,,,,,,,,,,,,,,,,,,1,,,,2024-04-05_18h44.45.450,SceneCat_2023_2,2023.2.3,119.57630146101036,2024-04-05 18h44.56.749243 +0200,
stimuli/img_z2mg7.jpg,f,,,0,1,0,0,0,0,1,memory,2,1,15,43,kitchen,kitchen,target,16.1379310344828,8.03448275862069,29,12.0862068965517,6,low,old,42,,,,,,,,,0,1,1,1,,,,,0,11,11,11,,,,,,,,,,,,,,,,,,,,,,,,,,,,,,,,,,,,,,,,,468.29275430399866,,,,,,,,,,,,,,,,sicher alt,0.5106705729995156,,,,,,,,,,,,,,,,,,,1,,,,2024-04-05_18h44.45.450,SceneCat_2023_2,2023.2.3,119.57630146101036,2024-04-05 18h44.56.749243 +0200,
stimuli/img_isw29.jpg,f,,,0,1,0,0,0,0,1,memory,2,1,27,55,kitchen,kitchen,target,52.1785714285714,23.3928571428571,28,37.7857142857143,75,low,old,43,,,,,,,,,0,1,1,1,,,,,0,12,12,12,,,,,,,,,,,,,,,,,,,,,,,,,,,,,,,,,,,,,,,,,470.28266009599974,,,,,,,,,,,,,,,,sicher alt,0.4782115239977429,,,,,,,,,,,,,,,,,,,1,,,,2024-04-05_18h44.45.450,SceneCat_2023_2,2023.2.3,119.57630146101036,2024-04-05 18h44.56.749243 +0200,
stimuli/img_s37yz.jpg,f,,,0,1,0,0,0,0,1,memory,2,1,17,45,kitchen,kitchen,target,83.52,69.88,25,76.7,680,high,old,44,,,,,,,,,0,1,1,1,,,,,0,13,13,13,,,,,,,,,,,,,,,,,,,,,,,,,,,,,,,,,,,,,,,,,472.2340774789991,,,,,,,,,,,,,,,,sicher alt,0.4548796460003359,,,,,,,,,,,,,,,,,,,1,,,,2024-04-05_18h44.45.450,SceneCat_2023_2,2023.2.3,119.57630146101036,2024-04-05 18h44.56.749243 +0200,
stimuli/img_qwtnc.jpg,j,,,0,1,0,0,0,0,1,memory,None,None,None,None,None,kitchen,None,61.2162162162162,32.5945945945946,37,46.9054054054054,156,low,new,45,,,,,,,,,0,1,1,1,,,,,0,14,14,14,,,,,,,,,,,,,,,,,,,,,,,,,,,,,,,,,,,,,,,,,474.1617075769973,,,,,,,,,,,,,,,,sicher alt,0.3631876529980218,,,,,,,,,,,,,,,,,,,1,,,,2024-04-05_18h44.45.450,SceneCat_2023_2,2023.2.3,119.57630146101036,2024-04-05 18h44.56.749243 +0200,
stimuli/img_1m0fn.jpg,f,,,0,1,0,0,0,0,1,memory,2,1,4,32,kitchen,kitchen,target,82.1333333333333,66.8333333333333,30,74.4833333333333,647,high,old,46,,,,,,,,,0,1,1,1,,,,,0,15,15,15,,,,,,,,,,,,,,,,,,,,,,,,,,,,,,,,,,,,,,,,,476.00357463899854,,,,,,,,,,,,,,,,sicher alt,0.37542983700041077,,,,,,,,,,,,,,,,,,,1,,,,2024-04-05_18h44.45.450,SceneCat_2023_2,2023.2.3,119.57630146101036,2024-04-05 18h44.56.749243 +0200,
stimuli/img_epedy.jpg,f,,,0,1,0,0,0,0,1,memory,2,1,21,49,kitchen,kitchen,target,79.4782608695652,58.9565217391304,23,69.2173913043478,530,high,old,47,,,,,,,,,0,1,1,1,,,,,0,16,16,16,,,,,,,,,,,,,,,,,,,,,,,,,,,,,,,,,,,,,,,,,477.85511205999865,,,,,,,,,,,,,,,,sicher alt,0.4278070990003471,,,,,,,,,,,,,,,,,,,1,,,,2024-04-05_18h44.45.450,SceneCat_2023_2,2023.2.3,119.57630146101036,2024-04-05 18h44.56.749243 +0200,
stimuli/img_cjvod.jpg,f,,,0,1,0,0,0,0,1,memory,2,1,14,42,kitchen,kitchen,target,74.72,50.24,25,62.48,385,high,old,48,,,,,,,,,0,1,1,1,,,,,0,17,17,17,,,,,,,,,,,,,,,,,,,,,,,,,,,,,,,,,,,,,,,,,479.76104153899723,,,,,,,,,,,,,,,,sicher alt,0.590031045001524,,,,,,,,,,,,,,,,,,,1,,,,2024-04-05_18h44.45.450,SceneCat_2023_2,2023.2.3,119.57630146101036,2024-04-05 18h44.56.749243 +0200,
stimuli/img_swx2d.jpg,f,,,0,1,0,0,0,0,1,memory,2,1,2,30,kitchen,kitchen,target,69.90625,33.6875,32,51.796875,208,low,old,49,,,,,,,,,0,1,1,1,,,,,0,18,18,18,,,,,,,,,,,,,,,,,,,,,,,,,,,,,,,,,,,,,,,,,481.835006420999,,,,,,,,,,,,,,,,sicher alt,0.7318815079997876,,,,,,,,,,,,,,,,,,,1,,,,2024-04-05_18h44.45.450,SceneCat_2023_2,2023.2.3,119.57630146101036,2024-04-05 18h44.56.749243 +0200,
stimuli/img_3eusg.jpg,f,,,0,1,0,0,0,0,1,memory,2,1,11,39,kitchen,kitchen,target,70.64,53.36,25,62,377,high,old,50,,,,,,,,,0,1,1,1,,,,,0,19,19,19,,,,,,,,,,,,,,,,,,,,,,,,,,,,,,,,,,,,,,,,,484.04375570999764,,,,,,,,,,,,,,,,sicher alt,0.5448179060003895,,,,,,,,,,,,,,,,,,,1,,,,2024-04-05_18h44.45.450,SceneCat_2023_2,2023.2.3,119.57630146101036,2024-04-05 18h44.56.749243 +0200,
stimuli/img_2rwes.jpg,j,,,0,1,0,0,0,0,1,memory,None,None,None,None,None,kitchen,None,70.0476190476191,42.4285714285714,21,56.2380952380952,269,low,new,51,,,,,,,,,0,1,1,1,,,,,0,20,20,20,,,,,,,,,,,,,,,,,,,,,,,,,,,,,,,,,,,,,,,,,486.07868947099996,,,,,,,,,,,,,,,,sicher alt,0.1620537169983436,,,,,,,,,,,,,,,,,,,1,,,,2024-04-05_18h44.45.450,SceneCat_2023_2,2023.2.3,119.57630146101036,2024-04-05 18h44.56.749243 +0200,
stimuli/img_es115.jpg,j,,,0,1,0,0,0,0,1,memory,None,None,None,None,None,kitchen,None,81.5,55.8636363636364,22,68.6818181818182,521,high,new,52,,,,,,,,,0,1,1,1,,,,,0,21,21,21,,,,,,,,,,,,,,,,,,,,,,,,,,,,,,,,,,,,,,,,,487.71556431799763,,,,,,,,,,,,,,,,sicher alt,0.4363868740001635,,,,,,,,,,,,,,,,,,,1,,,,2024-04-05_18h44.45.450,SceneCat_2023_2,2023.2.3,119.57630146101036,2024-04-05 18h44.56.749243 +0200,
stimuli/img_5oubg.jpg,j,,,0,1,0,0,0,0,1,memory,None,None,None,None,None,kitchen,None,48.5217391304348,30,23,39.2608695652174,80,low,new,53,,,,,,,,,0,1,1,1,,,,,0,22,22,22,,,,,,,,,,,,,,,,,,,,,,,,,,,,,,,,,,,,,,,,,489.62374194199947,,,,,,,,,,,,,,,,sicher alt,0.39343415099938284,,,,,,,,,,,,,,,,,,,1,,,,2024-04-05_18h44.45.450,SceneCat_2023_2,2023.2.3,119.57630146101036,2024-04-05 18h44.56.749243 +0200,
stimuli/img_kombf.jpg,f,,,0,1,0,0,0,0,1,memory,2,1,24,52,kitchen,kitchen,target,82.9736842105263,66.8684210526316,38,74.9210526315789,657,high,old,54,,,,,,,,,0,1,1,1,,,,,0,23,23,23,,,,,,,,,,,,,,,,,,,,,,,,,,,,,,,,,,,,,,,,,491.4947200739989,,,,,,,,,,,,,,,,sicher alt,0.3153988429985475,,,,,,,,,,,,,,,,,,,1,,,,2024-04-05_18h44.45.450,SceneCat_2023_2,2023.2.3,119.57630146101036,2024-04-05 18h44.56.749243 +0200,
stimuli/img_t4xel.jpg,f,,,0,1,0,0,0,0,1,memory,2,1,23,51,kitchen,kitchen,target,86.875,66.5625,32,76.71875,681,high,old,55,,,,,,,,,0,1,1,1,,,,,0,24,24,24,,,,,,,,,,,,,,,,,,,,,,,,,,,,,,,,,,,,,,,,,493.2845158909986,,,,,,,,,,,,,,,,sicher alt,0.49266665799950715,,,,,,,,,,,,,,,,,,,1,,,,2024-04-05_18h44.45.450,SceneCat_2023_2,2023.2.3,119.57630146101036,2024-04-05 18h44.56.749243 +0200,
stimuli/img_qneik.jpg,j,,,0,1,0,0,0,0,1,memory,None,None,None,None,None,kitchen,None,57.0645161290323,38.258064516129,31,47.6612903225806,165,low,new,56,,,,,,,,,0,1,1,1,,,,,0,25,25,25,,,,,,,,,,,,,,,,,,,,,,,,,,,,,,,,,,,,,,,,,495.2581596469972,,,,,,,,,,,,,,,,sicher alt,0.429470544000651,,,,,,,,,,,,,,,,,,,1,,,,2024-04-05_18h44.45.450,SceneCat_2023_2,2023.2.3,119.57630146101036,2024-04-05 18h44.56.749243 +0200,
stimuli/img_aqu2d.jpg,f,,,0,1,0,0,0,0,1,memory,2,1,28,56,kitchen,kitchen,target,81.1470588235294,67.5588235294118,34,74.3529411764706,641,high,old,57,,,,,,,,,0,1,1,1,,,,,0,26,26,26,,,,,,,,,,,,,,,,,,,,,,,,,,,,,,,,,,,,,,,,,497.17101287499827,,,,,,,,,,,,,,,,sicher alt,0.4051918650002335,,,,,,,,,,,,,,,,,,,1,,,,2024-04-05_18h44.45.450,SceneCat_2023_2,2023.2.3,119.57630146101036,2024-04-05 18h44.56.749243 +0200,
stimuli/img_i3eml.jpg,j,,,0,1,0,0,0,0,1,memory,None,None,None,None,None,kitchen,None,81.2941176470588,57.9411764705882,34,69.6176470588235,539,high,new,58,,,,,,,,,0,1,1,1,,,,,0,27,27,27,,,,,,,,,,,,,,,,,,,,,,,,,,,,,,,,,,,,,,,,,499.0521892069992,,,,,,,,,,,,,,,,sicher alt,0.4400562640003045,,,,,,,,,,,,,,,,,,,1,,,,2024-04-05_18h44.45.450,SceneCat_2023_2,2023.2.3,119.57630146101036,2024-04-05 18h44.56.749243 +0200,
,,,,0,1,0,0,0,0,,,,,,,,,,,,,,,,,,,,,,,,,,0,1,1,1,,,,,,,,,,,,,,,,,,,,,,,,,,,,,,,,,,,,,,,,,,,,,,,,,,,,,,,,,,,,,,,,,,,,,,,,,,,,,,,,,,,,,1,,,,2024-04-05_18h44.45.450,SceneCat_2023_2,2023.2.3,119.57630146101036,2024-04-05 18h44.56.749243 +0200,
stimuli/img_sk2ou.jpg,f,,,0,0,1,0,0,0,1,categorization,3,2,1,57,living_room,living_room,target,18.3157894736842,22.2894736842105,38,20.3026315789474,20,low,,,,,,,,,,,0,2,2,2,,,,,,,,,,,,,,,,,,,,,,,,,0,0,0,0,,,,,,,,,,,,,,,,,,,,,502.65326975899734,,,,,,,,,,505.4472932919998,j,0,4.168928426999628,None,506.22193528799835,,,,,,,,503.0272813060001,503.0272813060001,,,,,,,,,,,,1,,,,2024-04-05_18h44.45.450,SceneCat_2023_2,2023.2.3,119.57630146101036,2024-04-05 18h44.56.749243 +0200,
stimuli/img_mvoj8.jpg,f,,,0,0,1,0,0,0,1,categorization,3,2,2,58,living_room,living_room,target,89.8333333333333,69.9166666666667,36,79.875,272,high,,,,,,,,,,,0,2,2,2,,,,,,,,,,,,,,,,,,,,,,,,,0,1,1,1,,,,,,,,,,,,,,,,,,,,,509.9909789429985,,,,,,,,,,511.1069963480004,j,0,0.24152111899820738,None,,,,,,,,,,,,,,,,,,,,,,1,,,,2024-04-05_18h44.45.450,SceneCat_2023_2,2023.2.3,119.57630146101036,2024-04-05 18h44.56.749243 +0200,
stimuli/img_xy930.jpg,f,,,0,0,1,0,0,0,1,categorization,3,2,3,59,living_room,living_room,target,70.9705882352941,47.0294117647059,34,59,148,high,,,,,,,,,,,0,2,2,2,,,,,,,,,,,,,,,,,,,,,,,,,0,2,2,2,,,,,,,,,,,,,,,,,,,,,511.7027855359993,,,,,,,,,,513.3333384969992,j,0,0.33036424799865927,None,,,,,,,,,,,,,,,,,,,,,,1,,,,2024-04-05_18h44.45.450,SceneCat_2023_2,2023.2.3,119.57630146101036,2024-04-05 18h44.56.749243 +0200,
stimuli/img_j856a.jpg,f,,,0,0,1,0,0,0,1,categorization,3,2,4,60,living_room,living_room,target,37.96875,27.40625,32,32.6875,52,low,,,,,,,,,,,0,2,2,2,,,,,,,,,,,,,,,,,,,,,,,,,0,3,3,3,,,,,,,,,,,,,,,,,,,,,514.0264168279973,,,,,,,,,,515.7104781809976,j,0,0.36322915900018415,None,,,,,,,,,,,,,,,,,,,,,,1,,,,2024-04-05_18h44.45.450,SceneCat_2023_2,2023.2.3,119.57630146101036,2024-04-05 18h44.56.749243 +0200,
stimuli/img_v6kq9.jpg,j,,,0,0,1,0,0,0,1,categorization,3,2,5,61,living_room,kitchen,distractor,71.1842105263158,49.5,38,60.3421052631579,330,low,,,,,,,,,,,0,2,2,2,,,,,,,,,,,,,,,,,,,,,,,,,0,4,4,4,,,,,,,,,,,,,,,,,,,,,516.436608598,,,,,,,,,,518.0424382339988,j,1,0.3237783229997149,None,,,,,,,,,,,,,,,,,,,,,,1,,,,2024-04-05_18h44.45.450,SceneCat_2023_2,2023.2.3,119.57630146101036,2024-04-05 18h44.56.749243 +0200,
stimuli/img_luk7x.jpg,f,,,0,0,1,0,0,0,1,categorization,3,2,6,62,living_room,living_room,target,70.15625,49.09375,32,59.625,149,high,,,,,,,,,,,0,2,2,2,,,,,,,,,,,,,,,,,,,,,,,,,0,5,5,5,,,,,,,,,,,,,,,,,,,,,518.726644765,,,,,,,,,,520.0364446120002,j,0,0.1382055069989292,None,,,,,,,,,,,,,,,,,,,,,,1,,,,2024-04-05_18h44.45.450,SceneCat_2023_2,2023.2.3,119.57630146101036,2024-04-05 18h44.56.749243 +0200,
stimuli/img_95hiv.jpg,f,,,0,0,1,0,0,0,1,categorization,3,2,7,63,living_room,living_room,target,84.1764705882353,65.1176470588235,34,74.6470588235294,238,high,,,,,,,,,,,0,2,2,2,,,,,,,,,,,,,,,,,,,,,,,,,0,6,6,6,,,,,,,,,,,,,,,,,,,,,520.5337101279983,,,,,,,,,,522.4858322100008,j,0,0.053678768999816384,None,,,,,,,,,,,,,,,,,,,,,,1,,,,2024-04-05_18h44.45.450,SceneCat_2023_2,2023.2.3,119.57630146101036,2024-04-05 18h44.56.749243 +0200,
stimuli/img_hbemf.jpg,f,,,0,0,1,0,0,0,1,categorization,3,2,8,64,living_room,living_room,target,81.5526315789474,69.2894736842105,38,75.4210526315789,241,high,,,,,,,,,,,0,2,2,2,,,,,,,,,,,,,,,,,,,,,,,,,0,7,7,7,,,,,,,,,,,,,,,,,,,,,522.9105061779992,,,,,,,,,,524.2739669929979,j,0,0.2927924149989849,None,,,,,,,,,,,,,,,,,,,,,,1,,,,2024-04-05_18h44.45.450,SceneCat_2023_2,2023.2.3,119.57630146101036,2024-04-05 18h44.56.749243 +0200,
stimuli/img_8mkbv.jpg,j,,,0,0,1,0,0,0,1,categorization,3,2,9,65,living_room,kitchen,distractor,83.85,66.325,40,75.0875,661,high,,,,,,,,,,,0,2,2,2,,,,,,,,,,,,,,,,,,,,,,,,,0,8,8,8,,,,,,,,,,,,,,,,,,,,,524.929558429998,,,,,,,,,,526.2298565019992,j,1,0.2925564770011988,None,,,,,,,,,,,,,,,,,,,,,,1,,,,2024-04-05_18h44.45.450,SceneCat_2023_2,2023.2.3,119.57630146101036,2024-04-05 18h44.56.749243 +0200,
stimuli/img_ce55l.jpg,j,,,0,0,1,0,0,0,1,categorization,3,2,10,66,living_room,bedroom,distractor,84.4117647058823,65.4705882352941,34,74.9411764705882,394,high,,,,,,,,,,,0,2,2,2,,,,,,,,,,,,,,,,,,,,,,,,,0,9,9,9,,,,,,,,,,,,,,,,,,,,,526.8910270339984,,,,,,,,,,528.782991060998,j,1,0.022554187002242543,None,,,,,,,,,,,,,,,,,,,,,,1,,,,2024-04-05_18h44.45.450,SceneCat_2023_2,2023.2.3,119.57630146101036,2024-04-05 18h44.56.749243 +0200,
stimuli/img_9oofc.jpg,f,,,0,0,1,0,0,0,1,categorization,3,2,11,67,living_room,living_room,target,83,66.1351351351351,37,74.5675675675676,236,high,,,,,,,,,,,0,2,2,2,,,,,,,,,,,,,,,,,,,,,,,,,0,10,10,10,,,,,,,,,,,,,,,,,,,,,529.1747265449994,,,,,,,,,,530.3195811859987,j,0,0.2855306819983525,None,,,,,,,,,,,,,,,,,,,,,,1,,,,2024-04-05_18h44.45.450,SceneCat_2023_2,2023.2.3,119.57630146101036,2024-04-05 18h44.56.749243 +0200,
stimuli/img_hmmra.jpg,f,,,0,0,1,0,0,0,1,categorization,3,2,12,68,living_room,living_room,target,52.3055555555556,36.1944444444444,36,44.25,86,low,,,,,,,,,,,0,2,2,2,,,,,,,,,,,,,,,,,,,,,,,,,0,11,11,11,,,,,,,,,,,,,,,,,,,,,530.9613412830004,,,,,,,,,,532.8644450799984,j,0,0.011294496998743853,None,,,,,,,,,,,,,,,,,,,,,,1,,,,2024-04-05_18h44.45.450,SceneCat_2023_2,2023.2.3,119.57630146101036,2024-04-05 18h44.56.749243 +0200,
stimuli/img_yt3ea.jpg,j,,,0,0,1,0,0,0,1,categorization,3,2,13,69,living_room,bedroom,distractor,13.1470588235294,10.3235294117647,34,11.7352941176471,8,low,,,,,,,,,,,0,2,2,2,,,,,,,,,,,,,,,,,,,,,,,,,0,12,12,12,,,,,,,,,,,,,,,,,,,,,533.2508631950004,,,,,,,,,,535.0473339519995,j,1,0.033957988998736255,None,,,,,,,,,,,,,,,,,,,,,,1,,,,2024-04-05_18h44.45.450,SceneCat_2023_2,2023.2.3,119.57630146101036,2024-04-05 18h44.56.749243 +0200,
stimuli/img_b21d7.jpg,f,,,0,0,1,0,0,0,1,categorization,3,2,14,70,living_room,living_room,target,26.8055555555556,13.8611111111111,36,20.3333333333333,21,low,,,,,,,,,,,0,2,2,2,,,,,,,,,,,,,,,,,,,,,,,,,0,13,13,13,,,,,,,,,,,,,,,,,,,,,535.4527580579997,,,,,,,,,,537.3914077209993,j,0,0.17602577700017719,None,,,,,,,,,,,,,,,,,,,,,,1,,,,2024-04-05_18h44.45.450,SceneCat_2023_2,2023.2.3,119.57630146101036,2024-04-05 18h44.56.749243 +0200,
stimuli/img_4y7mh.jpg,f,,,0,0,1,0,0,0,1,categorization,3,2,15,71,living_room,living_room,target,51.9166666666667,38.2222222222222,36,45.0694444444444,89,low,,,,,,,,,,,0,2,2,2,,,,,,,,,,,,,,,,,,,,,,,,,0,14,14,14,,,,,,,,,,,,,,,,,,,,,537.9508886609983,,,,,,,,,,539.4442346159994,j,0,0.08467464600107633,None,,,,,,,,,,,,,,,,,,,,,,1,,,,2024-04-05_18h44.45.450,SceneCat_2023_2,2023.2.3,119.57630146101036,2024-04-05 18h44.56.749243 +0200,
stimuli/img_abobq.jpg,f,,,0,0,1,0,0,0,1,categorization,3,2,16,72,living_room,living_room,target,73.5,51.1785714285714,28,62.3392857142857,165,high,,,,,,,,,,,0,2,2,2,,,,,,,,,,,,,,,,,,,,,,,,,0,15,15,15,,,,,,,,,,,,,,,,,,,,,539.8930537899978,,,,,,,,,,541.5879203799996,j,0,0.0459641070010548,None,,,,,,,,,,,,,,,,,,,,,,1,,,,2024-04-05_18h44.45.450,SceneCat_2023_2,2023.2.3,119.57630146101036,2024-04-05 18h44.56.749243 +0200,
stimuli/img_o30wb.jpg,f,,,0,0,1,0,0,0,1,categorization,3,2,17,73,living_room,living_room,target,81.6923076923077,66.5128205128205,39,74.1025641025641,229,high,,,,,,,,,,,0,2,2,2,,,,,,,,,,,,,,,,,,,,,,,,,0,16,16,16,,,,,,,,,,,,,,,,,,,,,541.9908677109997,,,,,,,,,,543.9649754130005,j,0,0.3803655340016121,None,,,,,,,,,,,,,,,,,,,,,,1,,,,2024-04-05_18h44.45.450,SceneCat_2023_2,2023.2.3,119.57630146101036,2024-04-05 18h44.56.749243 +0200,
stimuli/img_99exx.jpg,f,,,0,0,1,0,0,0,1,categorization,3,2,18,74,living_room,living_room,target,69.5588235294118,53.6764705882353,34,61.6176470588235,161,high,,,,,,,,,,,0,2,2,2,,,,,,,,,,,,,,,,,,,,,,,,,0,17,17,17,,,,,,,,,,,,,,,,,,,,,544.7171157019984,,,,,,,,,,546.1055180049989,j,0,0.12273022900262731,None,,,,,,,,,,,,,,,,,,,,,,1,,,,2024-04-05_18h44.45.450,SceneCat_2023_2,2023.2.3,119.57630146101036,2024-04-05 18h44.56.749243 +0200,
stimuli/img_tbs4n.jpg,f,,,0,0,1,0,0,0,1,categorization,3,2,19,75,living_room,living_room,target,77.4722222222222,58.1388888888889,36,67.8055555555556,192,high,,,,,,,,,,,0,2,2,2,,,,,,,,,,,,,,,,,,,,,,,,,0,18,18,18,,,,,,,,,,,,,,,,,,,,,546.5984695989973,,,,,,,,,,548.1556446559989,j,0,0.07208167299904744,None,,,,,,,,,,,,,,,,,,,,,,1,,,,2024-04-05_18h44.45.450,SceneCat_2023_2,2023.2.3,119.57630146101036,2024-04-05 18h44.56.749243 +0200,
stimuli/img_cic06.jpg,f,,,0,0,1,0,0,0,1,categorization,3,2,20,76,living_room,living_room,target,86.0857142857143,69.5142857142857,35,77.8,260,high,,,,,,,,,,,0,2,2,2,,,,,,,,,,,,,,,,,,,,,,,,,0,19,19,19,,,,,,,,,,,,,,,,,,,,,548.5997098449989,,,,,,,,,,550.5878679109992,j,0,0.2677910040001734,None,,,,,,,,,,,,,,,,,,,,,,1,,,,2024-04-05_18h44.45.450,SceneCat_2023_2,2023.2.3,119.57630146101036,2024-04-05 18h44.56.749243 +0200,
stimuli/img_l42rg.jpg,f,,,0,0,1,0,0,0,1,categorization,3,2,21,77,living_room,living_room,target,63.1578947368421,52.6052631578947,38,57.8815789473684,142,low,,,,,,,,,,,0,2,2,2,,,,,,,,,,,,,,,,,,,,,,,,,0,20,20,20,,,,,,,,,,,,,,,,,,,,,551.2196687409996,,,,,,,,,,553.0416033149995,j,0,0.21390353400056483,None,,,,,,,,,,,,,,,,,,,,,,1,,,,2024-04-05_18h44.45.450,SceneCat_2023_2,2023.2.3,119.57630146101036,2024-04-05 18h44.56.749243 +0200,
stimuli/img_vh7v8.jpg,f,,,0,0,1,0,0,0,1,categorization,3,2,22,78,living_room,living_room,target,79.2894736842105,58.7894736842105,38,69.0394736842105,200,high,,,,,,,,,,,0,2,2,2,,,,,,,,,,,,,,,,,,,,,,,,,0,21,21,21,,,,,,,,,,,,,,,,,,,,,553.6230832719993,,,,,,,,,,554.7021774770001,j,0,0.18734655099979136,None,,,,,,,,,,,,,,,,,,,,,,1,,,,2024-04-05_18h44.45.450,SceneCat_2023_2,2023.2.3,119.57630146101036,2024-04-05 18h44.56.749243 +0200,
stimuli/img_09lgm.jpg,j,,,0,0,1,0,0,0,1,categorization,3,2,23,79,living_room,kitchen,distractor,85.2258064516129,62.8387096774194,31,74.0322580645161,635,high,,,,,,,,,,,0,2,2,2,,,,,,,,,,,,,,,,,,,,,,,,,0,22,22,22,,,,,,,,,,,,,,,,,,,,,555.2685475759972,,,,,,,,,,556.7192880750008,j,1,0.1305102389997046,None,,,,,,,,,,,,,,,,,,,,,,1,,,,2024-04-05_18h44.45.450,SceneCat_2023_2,2023.2.3,119.57630146101036,2024-04-05 18h44.56.749243 +0200,
stimuli/img_66fuf.jpg,j,,,0,0,1,0,0,0,1,categorization,3,2,24,80,living_room,kitchen,distractor,80.875,64,32,72.4375,604,high,,,,,,,,,,,0,2,2,2,,,,,,,,,,,,,,,,,,,,,,,,,0,23,23,23,,,,,,,,,,,,,,,,,,,,,557.2215044580007,,,,,,,,,,558.8958097359973,j,1,0.5306677580010728,None,559.6637077189989,,,,,,,,,,,,,,,,,,,,,1,,,,2024-04-05_18h44.45.450,SceneCat_2023_2,2023.2.3,119.57630146101036,2024-04-05 18h44.56.749243 +0200,
stimuli/img_mh6x6.jpg,f,,,0,0,1,0,0,0,1,categorization,3,2,25,81,living_room,living_room,target,58.8888888888889,52.8611111111111,36,55.875,135,low,,,,,,,,,,,0,2,2,2,,,,,,,,,,,,,,,,,,,,,,,,,0,24,24,24,,,,,,,,,,,,,,,,,,,,,559.7973884669991,,,,,,,,,,561.6009595989999,j,0,0.018147756996768294,None,,,,,,,,,,,,,,,,,,,,,,1,,,,2024-04-05_18h44.45.450,SceneCat_2023_2,2023.2.3,119.57630146101036,2024-04-05 18h44.56.749243 +0200,
stimuli/img_73pyk.jpg,f,,,0,0,1,0,0,0,1,categorization,3,2,26,82,living_room,living_room,target,70.7837837837838,47.1351351351351,37,58.9594594594595,147,high,,,,,,,,,,,0,2,2,2,,,,,,,,,,,,,,,,,,,,,,,,,0,25,25,25,,,,,,,,,,,,,,,,,,,,,561.9954445080002,,,,,,,,,,563.5267622719985,j,0,0.06332098800339736,None,,,,,,,,,,,,,,,,,,,,,,1,,,,2024-04-05_18h44.45.450,SceneCat_2023_2,2023.2.3,119.57630146101036,2024-04-05 18h44.56.749243 +0200,
stimuli/img_gzbdr.jpg,j,,,0,0,1,0,0,0,1,categorization,3,2,27,83,living_room,bedroom,distractor,30.2352941176471,18.6176470588235,34,24.4264705882353,39,low,,,,,,,,,,,0,2,2,2,,,,,,,,,,,,,,,,,,,,,,,,,0,26,26,26,,,,,,,,,,,,,,,,,,,,,563.9580750860005,,,,,,,,,,565.8911018139988,j,1,0.1535830620014167,None,,,,,,,,,,,,,,,,,,,,,,1,,,,2024-04-05_18h44.45.450,SceneCat_2023_2,2023.2.3,119.57630146101036,2024-04-05 18h44.56.749243 +0200,
stimuli/img_37hgm.jpg,f,,,0,0,1,0,0,0,1,categorization,3,2,28,84,living_room,living_room,target,68.1212121212121,52.8181818181818,33,60.469696969697,155,high,,,,,,,,,,,0,2,2,2,,,,,,,,,,,,,,,,,,,,,,,,,0,27,27,27,,,,,,,,,,,,,,,,,,,,,566.4168306909996,,,,,,,,,,567.9465808629975,j,0,0.3286135550006293,None,,,,,,,,,,,,,,,,,,,,,,1,,,,2024-04-05_18h44.45.450,SceneCat_2023_2,2023.2.3,119.57630146101036,2024-04-05 18h44.56.749243 +0200,
stimuli/img_hmmra.jpg,f,,,0,0,1,0,0,0,1,memory,3,2,12,68,living_room,living_room,target,52.3055555555556,36.1944444444444,36,44.25,86,low,old,59,,,,,,,,,0,2,2,2,,,,,,,,,,,,,,,,,,,,,,,,,,,,,0,0,0,0,,,,,,,,,,,,,,,,,568.6708112809974,,,,,,,,,,,,,,,,sicher alt,0.5373170509992633,,,,,,,,,,,,,,,,,,,1,,,,2024-04-05_18h44.45.450,SceneCat_2023_2,2023.2.3,119.57630146101036,2024-04-05 18h44.56.749243 +0200,
stimuli/img_73pyk.jpg,f,,,0,0,1,0,0,0,1,memory,3,2,26,82,living_room,living_room,target,70.7837837837838,47.1351351351351,37,58.9594594594595,147,high,old,60,,,,,,,,,0,2,2,2,,,,,,,,,,,,,,,,,,,,,,,,,,,,,0,1,1,1,,,,,,,,,,,,,,,,,571.7689144489996,,,,,,,,,,,,,,,,sicher alt,0.4497515389994078,,,,,,,,,,,,,,,,,,,1,,,,2024-04-05_18h44.45.450,SceneCat_2023_2,2023.2.3,119.57630146101036,2024-04-05 18h44.56.749243 +0200,
stimuli/img_tbs4n.jpg,f,,,0,0,1,0,0,0,1,memory,3,2,19,75,living_room,living_room,target,77.4722222222222,58.1388888888889,36,67.8055555555556,192,high,old,61,,,,,,,,,0,2,2,2,,,,,,,,,,,,,,,,,,,,,,,,,,,,,0,2,2,2,,,,,,,,,,,,,,,,,573.7842148060008,,,,,,,,,,,,,,,,sicher alt,0.5374330570011807,,,,,,,,,,,,,,,,,,,1,,,,2024-04-05_18h44.45.450,SceneCat_2023_2,2023.2.3,119.57630146101036,2024-04-05 18h44.56.749243 +0200,
stimuli/img_vh7v8.jpg,f,,,0,0,1,0,0,0,1,memory,3,2,22,78,living_room,living_room,target,79.2894736842105,58.7894736842105,38,69.0394736842105,200,high,old,62,,,,,,,,,0,2,2,2,,,,,,,,,,,,,,,,,,,,,,,,,,,,,0,3,3,3,,,,,,,,,,,,,,,,,575.8774273239978,,,,,,,,,,,,,,,,sicher alt,0.40080663000117056,,,,,,,,,,,,,,,,,,,1,,,,2024-04-05_18h44.45.450,SceneCat_2023_2,2023.2.3,119.57630146101036,2024-04-05 18h44.56.749243 +0200,
stimuli/img_b21d7.jpg,f,,,0,0,1,0,0,0,1,memory,3,2,14,70,living_room,living_room,target,26.8055555555556,13.8611111111111,36,20.3333333333333,21,low,old,63,,,,,,,,,0,2,2,2,,,,,,,,,,,,,,,,,,,,,,,,,,,,,0,4,4,4,,,,,,,,,,,,,,,,,577.8374060749993,,,,,,,,,,,,,,,,sicher alt,0.6174542209992069,,,,,,,,,,,,,,,,,,,1,,,,2024-04-05_18h44.45.450,SceneCat_2023_2,2023.2.3,119.57630146101036,2024-04-05 18h44.56.749243 +0200,
stimuli/img_5t91y.jpg,j,,,0,0,1,0,0,0,1,memory,None,None,None,None,None,living_room,None,59.3548387096774,47.5483870967742,31,53.4516129032258,122,low,new,64,,,,,,,,,0,2,2,2,,,,,,,,,,,,,,,,,,,,,,,,,,,,,0,5,5,5,,,,,,,,,,,,,,,,,580.0208865700006,,,,,,,,,,,,,,,,sicher alt,0.4999920709997241,,,,,,,,,,,,,,,,,,,1,,,,2024-04-05_18h44.45.450,SceneCat_2023_2,2023.2.3,119.57630146101036,2024-04-05 18h44.56.749243 +0200,
stimuli/img_cic06.jpg,f,,,0,0,1,0,0,0,1,memory,3,2,20,76,living_room,living_room,target,86.0857142857143,69.5142857142857,35,77.8,260,high,old,65,,,,,,,,,0,2,2,2,,,,,,,,,,,,,,,,,,,,,,,,,,,,,0,6,6,6,,,,,,,,,,,,,,,,,582.0818558559986,,,,,,,,,,,,,,,,sicher alt,0.46122513899899786,,,,,,,,,,,,,,,,,,,1,,,,2024-04-05_18h44.45.450,SceneCat_2023_2,2023.2.3,119.57630146101036,2024-04-05 18h44.56.749243 +0200,
stimuli/img_wtz6m.jpg,j,,,0,0,1,0,0,0,1,memory,None,None,None,None,None,living_room,None,53.0833333333333,36,36,44.5416666666667,87,low,new,66,,,,,,,,,0,2,2,2,,,,,,,,,,,,,,,,,,,,,,,,,,,,,0,7,7,7,,,,,,,,,,,,,,,,,584.1153294729993,,,,,,,,,,,,,,,,sicher alt,0.4214095120005368,,,,,,,,,,,,,,,,,,,1,,,,2024-04-05_18h44.45.450,SceneCat_2023_2,2023.2.3,119.57630146101036,2024-04-05 18h44.56.749243 +0200,
stimuli/img_l42rg.jpg,f,,,0,0,1,0,0,0,1,memory,3,2,21,77,living_room,living_room,target,63.1578947368421,52.6052631578947,38,57.8815789473684,142,low,old,67,,,,,,,,,0,2,2,2,,,,,,,,,,,,,,,,,,,,,,,,,,,,,0,8,8,8,,,,,,,,,,,,,,,,,586.0915491859996,,,,,,,,,,,,,,,,sicher alt,0.42446837600073195,,,,,,,,,,,,,,,,,,,1,,,,2024-04-05_18h44.45.450,SceneCat_2023_2,2023.2.3,119.57630146101036,2024-04-05 18h44.56.749243 +0200,
stimuli/img_9oofc.jpg,f,,,0,0,1,0,0,0,1,memory,3,2,11,67,living_room,living_room,target,83,66.1351351351351,37,74.5675675675676,236,high,old,68,,,,,,,,,0,2,2,2,,,,,,,,,,,,,,,,,,,,,,,,,,,,,0,9,9,9,,,,,,,,,,,,,,,,,588.0820459210008,,,,,,,,,,,,,,,,sicher alt,0.4647145309972984,,,,,,,,,,,,,,,,,,,1,,,,2024-04-05_18h44.45.450,SceneCat_2023_2,2023.2.3,119.57630146101036,2024-04-05 18h44.56.749243 +0200,
stimuli/img_gfmug.jpg,j,,,0,0,1,0,0,0,1,memory,None,None,None,None,None,living_room,None,55.2727272727273,26.3333333333333,33,40.8030303030303,71,low,new,69,,,,,,,,,0,2,2,2,,,,,,,,,,,,,,,,,,,,,,,,,,,,,0,10,10,10,,,,,,,,,,,,,,,,,590.1149742029993,,,,,,,,,,,,,,,,sicher alt,0.3912965189992974,,,,,,,,,,,,,,,,,,,1,,,,2024-04-05_18h44.45.450,SceneCat_2023_2,2023.2.3,119.57630146101036,2024-04-05 18h44.56.749243 +0200,
stimuli/img_mh6x6.jpg,f,,,0,0,1,0,0,0,1,memory,3,2,25,81,living_room,living_room,target,58.8888888888889,52.8611111111111,36,55.875,135,low,old,70,,,,,,,,,0,2,2,2,,,,,,,,,,,,,,,,,,,,,,,,,,,,,0,11,11,11,,,,,,,,,,,,,,,,,592.0659398440002,,,,,,,,,,,,,,,,sicher alt,1.1111950779995823,,,,,,,,,,,,,,,,,,,1,,,,2024-04-05_18h44.45.450,SceneCat_2023_2,2023.2.3,119.57630146101036,2024-04-05 18h44.56.749243 +0200,
stimuli/img_mvoj8.jpg,f,,,0,0,1,0,0,0,1,memory,3,2,2,58,living_room,living_room,target,89.8333333333333,69.9166666666667,36,79.875,272,high,old,71,,,,,,,,,0,2,2,2,,,,,,,,,,,,,,,,,,,,,,,,,,,,,0,12,12,12,,,,,,,,,,,,,,,,,594.7359796269993,,,,,,,,,,,,,,,,sicher alt,0.4609332850013743,,,,,,,,,,,,,,,,,,,1,,,,2024-04-05_18h44.45.450,SceneCat_2023_2,2023.2.3,119.57630146101036,2024-04-05 18h44.56.749243 +0200,
stimuli/img_dh5no.jpg,j,,,0,0,1,0,0,0,1,memory,None,None,None,None,None,living_room,None,83.9285714285714,58.5357142857143,28,71.2321428571429,210,high,new,72,,,,,,,,,0,2,2,2,,,,,,,,,,,,,,,,,,,,,,,,,,,,,0,13,13,13,,,,,,,,,,,,,,,,,596.7558434479979,,,,,,,,,,,,,,,,sicher alt,0.4063484110010904,,,,,,,,,,,,,,,,,,,1,,,,2024-04-05_18h44.45.450,SceneCat_2023_2,2023.2.3,119.57630146101036,2024-04-05 18h44.56.749243 +0200,
stimuli/img_qywyi.jpg,j,,,0,0,1,0,0,0,1,memory,None,None,None,None,None,living_room,None,43.5757575757576,36.6666666666667,33,40.1212121212121,68,low,new,73,,,,,,,,,0,2,2,2,,,,,,,,,,,,,,,,,,,,,,,,,,,,,0,14,14,14,,,,,,,,,,,,,,,,,598.7223640480006,,,,,,,,,,,,,,,,sicher alt,0.4238749710020784,,,,,,,,,,,,,,,,,,,1,,,,2024-04-05_18h44.45.450,SceneCat_2023_2,2023.2.3,119.57630146101036,2024-04-05 18h44.56.749243 +0200,
stimuli/img_37hgm.jpg,f,,,0,0,1,0,0,0,1,memory,3,2,28,84,living_room,living_room,target,68.1212121212121,52.8181818181818,33,60.469696969697,155,high,old,74,,,,,,,,,0,2,2,2,,,,,,,,,,,,,,,,,,,,,,,,,,,,,0,15,15,15,,,,,,,,,,,,,,,,,600.7064374250003,,,,,,,,,,,,,,,,sicher alt,0.27568406499995035,,,,,,,,,,,,,,,,,,,1,,,,2024-04-05_18h44.45.450,SceneCat_2023_2,2023.2.3,119.57630146101036,2024-04-05 18h44.56.749243 +0200,
stimuli/img_o30wb.jpg,f,,,0,0,1,0,0,0,1,memory,3,2,17,73,living_room,living_room,target,81.6923076923077,66.5128205128205,39,74.1025641025641,229,high,old,75,,,,,,,,,0,2,2,2,,,,,,,,,,,,,,,,,,,,,,,,,,,,,0,16,16,16,,,,,,,,,,,,,,,,,602.5414185400004,,,,,,,,,,,,,,,,sicher alt,0.5678115949995117,,,,,,,,,,,,,,,,,,,1,,,,2024-04-05_18h44.45.450,SceneCat_2023_2,2023.2.3,119.57630146101036,2024-04-05 18h44.56.749243 +0200,
stimuli/img_hbemf.jpg,f,,,0,0,1,0,0,0,1,memory,3,2,8,64,living_room,living_room,target,81.5526315789474,69.2894736842105,38,75.4210526315789,241,high,old,76,,,,,,,,,0,2,2,2,,,,,,,,,,,,,,,,,,,,,,,,,,,,,0,17,17,17,,,,,,,,,,,,,,,,,604.6640975640003,,,,,,,,,,,,,,,,sicher alt,0.02878247199987527,,,,,,,,,,,,,,,,,,,1,,,,2024-04-05_18h44.45.450,SceneCat_2023_2,2023.2.3,119.57630146101036,2024-04-05 18h44.56.749243 +0200,
stimuli/img_qdi9n.jpg,j,,,0,0,1,0,0,0,1,memory,None,None,None,None,None,living_room,None,43.7105263157895,39.3421052631579,38,41.5263157894737,73,low,new,77,,,,,,,,,0,2,2,2,,,,,,,,,,,,,,,,,,,,,,,,,,,,,0,18,18,18,,,,,,,,,,,,,,,,,606.2648980710001,,,,,,,,,,,,,,,,sicher alt,0.4453890959994169,,,,,,,,,,,,,,,,,,,1,,,,2024-04-05_18h44.45.450,SceneCat_2023_2,2023.2.3,119.57630146101036,2024-04-05 18h44.56.749243 +0200,
stimuli/img_99exx.jpg,f,,,0,0,1,0,0,0,1,memory,3,2,18,74,living_room,living_room,target,69.5588235294118,53.6764705882353,34,61.6176470588235,161,high,old,78,,,,,,,,,0,2,2,2,,,,,,,,,,,,,,,,,,,,,,,,,,,,,0,19,19,19,,,,,,,,,,,,,,,,,608.2713699899978,,,,,,,,,,,,,,,,sicher alt,0.3494239680003375,,,,,,,,,,,,,,,,,,,1,,,,2024-04-05_18h44.45.450,SceneCat_2023_2,2023.2.3,119.57630146101036,2024-04-05 18h44.56.749243 +0200,
stimuli/img_j856a.jpg,f,,,0,0,1,0,0,0,1,memory,3,2,4,60,living_room,living_room,target,37.96875,27.40625,32,32.6875,52,low,old,79,,,,,,,,,0,2,2,2,,,,,,,,,,,,,,,,,,,,,,,,,,,,,0,20,20,20,,,,,,,,,,,,,,,,,610.1817719989995,,,,,,,,,,,,,,,,sicher alt,0.5340804860024946,,,,,,,,,,,,,,,,,,,1,,,,2024-04-05_18h44.45.450,SceneCat_2023_2,2023.2.3,119.57630146101036,2024-04-05 18h44.56.749243 +0200,
stimuli/img_sk2ou.jpg,f,,,0,0,1,0,0,0,1,memory,3,2,1,57,living_room,living_room,target,18.3157894736842,22.2894736842105,38,20.3026315789474,20,low,old,80,,,,,,,,,0,2,2,2,,,,,,,,,,,,,,,,,,,,,,,,,,,,,0,21,21,21,,,,,,,,,,,,,,,,,612.2817343349998,,,,,,,,,,,,,,,,sicher alt,0.7456457820007927,,,,,,,,,,,,,,,,,,,1,,,,2024-04-05_18h44.45.450,SceneCat_2023_2,2023.2.3,119.57630146101036,2024-04-05 18h44.56.749243 +0200,
stimuli/img_luk7x.jpg,f,,,0,0,1,0,0,0,1,memory,3,2,6,62,living_room,living_room,target,70.15625,49.09375,32,59.625,149,high,old,81,,,,,,,,,0,2,2,2,,,,,,,,,,,,,,,,,,,,,,,,,,,,,0,22,22,22,,,,,,,,,,,,,,,,,614.5841373479998,,,,,,,,,,,,,,,,sicher alt,0.35701684200103045,,,,,,,,,,,,,,,,,,,1,,,,2024-04-05_18h44.45.450,SceneCat_2023_2,2023.2.3,119.57630146101036,2024-04-05 18h44.56.749243 +0200,
stimuli/img_abobq.jpg,f,,,0,0,1,0,0,0,1,memory,3,2,16,72,living_room,living_room,target,73.5,51.1785714285714,28,62.3392857142857,165,high,old,82,,,,,,,,,0,2,2,2,,,,,,,,,,,,,,,,,,,,,,,,,,,,,0,23,23,23,,,,,,,,,,,,,,,,,616.5148911069991,,,,,,,,,,,,,,,,sicher alt,0.43823472000076436,,,,,,,,,,,,,,,,,,,1,,,,2024-04-05_18h44.45.450,SceneCat_2023_2,2023.2.3,119.57630146101036,2024-04-05 18h44.56.749243 +0200,
stimuli/img_4y7mh.jpg,f,,,0,0,1,0,0,0,1,memory,3,2,15,71,living_room,living_room,target,51.9166666666667,38.2222222222222,36,45.0694444444444,89,low,old,83,,,,,,,,,0,2,2,2,,,,,,,,,,,,,,,,,,,,,,,,,,,,,0,24,24,24,,,,,,,,,,,,,,,,,618.5169754239978,,,,,,,,,,,,,,,,sicher alt,0.24100109499704558,,,,,,,,,,,,,,,,,,,1,,,,2024-04-05_18h44.45.450,SceneCat_2023_2,2023.2.3,119.57630146101036,2024-04-05 18h44.56.749243 +0200,
stimuli/img_95hiv.jpg,f,,,0,0,1,0,0,0,1,memory,3,2,7,63,living_room,living_room,target,84.1764705882353,65.1176470588235,34,74.6470588235294,238,high,old,84,,,,,,,,,0,2,2,2,,,,,,,,,,,,,,,,,,,,,,,,,,,,,0,25,25,25,,,,,,,,,,,,,,,,,620.3199437900003,,,,,,,,,,,,,,,,sicher alt,0.3213103480011341,,,,,,,,,,,,,,,,,,,1,,,,2024-04-05_18h44.45.450,SceneCat_2023_2,2023.2.3,119.57630146101036,2024-04-05 18h44.56.749243 +0200,
stimuli/img_yhiqc.jpg,j,,,0,0,1,0,0,0,1,memory,None,None,None,None,None,living_room,None,61.3888888888889,42.4722222222222,36,51.9305555555556,117,low,new,85,,,,,,,,,0,2,2,2,,,,,,,,,,,,,,,,,,,,,,,,,,,,,0,26,26,26,,,,,,,,,,,,,,,,,622.2038478789982,,,,,,,,,,,,,,,,sicher alt,0.16103658700012602,,,,,,,,,,,,,,,,,,,1,,,,2024-04-05_18h44.45.450,SceneCat_2023_2,2023.2.3,119.57630146101036,2024-04-05 18h44.56.749243 +0200,
stimuli/img_xy930.jpg,f,,,0,0,1,0,0,0,1,memory,3,2,3,59,living_room,living_room,target,70.9705882352941,47.0294117647059,34,59,148,high,old,86,,,,,,,,,0,2,2,2,,,,,,,,,,,,,,,,,,,,,,,,,,,,,0,27,27,27,,,,,,,,,,,,,,,,,623.9213123119989,,,,,,,,,,,,,,,,sicher alt,0.38335204400209477,,,,,,,,,,,,,,,,,,,1,,,,2024-04-05_18h44.45.450,SceneCat_2023_2,2023.2.3,119.57630146101036,2024-04-05 18h44.56.749243 +0200,
,,,,0,0,1,0,0,0,,,,,,,,,,,,,,,,,,,,,,,,,,0,2,2,2,,,,,,,,,,,,,,,,,,,,,,,,,,,,,,,,,,,,,,,,,,,,,,,,,,,,,,,,,,,,,,,,,,,,,,,,,,,,,,,,,,,,,1,,,,2024-04-05_18h44.45.450,SceneCat_2023_2,2023.2.3,119.57630146101036,2024-04-05 18h44.56.749243 +0200,
stimuli/img_cvyc3.jpg,f,,,0,0,0,1,0,0,1,categorization,4,1,1,85,bedroom,bedroom,target,85.8928571428571,75.1785714285714,28,80.5357142857143,451,high,,,,,,,,,,,0,3,3,3,,,,,,,,,,,,,,,,,,,,,,,,,,,,,,,,,0,0,0,0,,,,,,,,,,,,,633.4705840040006,,,,,,,,,,,,,,,,,,,,,,,,,633.8014121349988,633.8014121349988,642.6174195999993,j,0,0.028394992001267383,None,,,,,1,,,,2024-04-05_18h44.45.450,SceneCat_2023_2,2023.2.3,119.57630146101036,2024-04-05 18h44.56.749243 +0200,
stimuli/img_v0i83.jpg,f,,,0,0,0,1,0,0,1,categorization,4,1,2,86,bedroom,bedroom,target,83.3333333333333,57.6296296296296,27,70.4814814814815,340,high,,,,,,,,,,,0,3,3,3,,,,,,,,,,,,,,,,,,,,,,,,,,,,,,,,,0,1,1,1,,,,,,,,,,,,,643.0082604509989,,,,,,,,,,,,,,,,,,,,,,,,,,,644.715248354998,j,0,0.012492737001593923,None,,,,,1,,,,2024-04-05_18h44.45.450,SceneCat_2023_2,2023.2.3,119.57630146101036,2024-04-05 18h44.56.749243 +0200,
stimuli/img_4yy1j.jpg,f,,,0,0,0,1,0,0,1,categorization,4,1,3,87,bedroom,bedroom,target,75.9393939393939,53.6060606060606,33,64.7727272727273,264,high,,,,,,,,,,,0,3,3,3,,,,,,,,,,,,,,,,,,,,,,,,,,,,,,,,,0,2,2,2,,,,,,,,,,,,,645.0874960289984,,,,,,,,,,,,,,,,,,,,,,,,,,,646.4185081369978,j,0,0.0708383569981379,None,,,,,1,,,,2024-04-05_18h44.45.450,SceneCat_2023_2,2023.2.3,119.57630146101036,2024-04-05 18h44.56.749243 +0200,
stimuli/img_yteqw.jpg,f,,,0,0,0,1,0,0,1,categorization,4,1,4,88,bedroom,bedroom,target,68.1212121212121,44.3030303030303,33,56.2121212121212,180,low,,,,,,,,,,,0,3,3,3,,,,,,,,,,,,,,,,,,,,,,,,,,,,,,,,,0,3,3,3,,,,,,,,,,,,,646.8626416459992,,,,,,,,,,,,,,,,,,,,,,,,,,,648.0259608870001,j,0,0.26246916899981443,None,,,,,1,,,,2024-04-05_18h44.45.450,SceneCat_2023_2,2023.2.3,119.57630146101036,2024-04-05 18h44.56.749243 +0200,
stimuli/img_i0its.jpg,f,,,0,0,0,1,0,0,1,categorization,4,1,5,89,bedroom,bedroom,target,89.2,75.1666666666667,30,82.1833333333333,469,high,,,,,,,,,,,0,3,3,3,,,,,,,,,,,,,,,,,,,,,,,,,,,,,,,,,0,4,4,4,,,,,,,,,,,,,648.6739194469992,,,,,,,,,,,,,,,,,,,,,,,,,,,649.837987379,j,0,0.08655448500212515,None,,,,,1,,,,2024-04-05_18h44.45.450,SceneCat_2023_2,2023.2.3,119.57630146101036,2024-04-05 18h44.56.749243 +0200,
stimuli/img_ur4j0.jpg,f,,,0,0,0,1,0,0,1,categorization,4,1,6,90,bedroom,bedroom,target,37.9583333333333,18.7916666666667,24,28.375,48,low,,,,,,,,,,,0,3,3,3,,,,,,,,,,,,,,,,,,,,,,,,,,,,,,,,,0,5,5,5,,,,,,,,,,,,,650.2898524289994,,,,,,,,,,,,,,,,,,,,,,,,,,,651.8123667389991,j,0,0.038709111999196466,None,,,,,1,,,,2024-04-05_18h44.45.450,SceneCat_2023_2,2023.2.3,119.57630146101036,2024-04-05 18h44.56.749243 +0200,
stimuli/img_13ozs.jpg,f,,,0,0,0,1,0,0,1,categorization,4,1,7,91,bedroom,bedroom,target,36.5588235294118,21.5,34,29.0294117647059,51,low,,,,,,,,,,,0,3,3,3,,,,,,,,,,,,,,,,,,,,,,,,,,,,,,,,,0,6,6,6,,,,,,,,,,,,,652.2133154779985,,,,,,,,,,,,,,,,,,,,,,,,,,,653.9482341830007,j,0,0.016348821998690255,None,,,,,1,,,,2024-04-05_18h44.45.450,SceneCat_2023_2,2023.2.3,119.57630146101036,2024-04-05 18h44.56.749243 +0200,
stimuli/img_d9ogj.jpg,f,,,0,0,0,1,0,0,1,categorization,4,1,8,92,bedroom,bedroom,target,77.3214285714286,50.2857142857143,28,63.8035714285714,250,high,,,,,,,,,,,0,3,3,3,,,,,,,,,,,,,,,,,,,,,,,,,,,,,,,,,0,7,7,7,,,,,,,,,,,,,654.3220688029978,,,,,,,,,,,,,,,,,,,,,,,,,,,655.5947024559973,j,0,0.04248136300157057,None,,,,,1,,,,2024-04-05_18h44.45.450,SceneCat_2023_2,2023.2.3,119.57630146101036,2024-04-05 18h44.56.749243 +0200,
stimuli/img_uttnz.jpg,f,,,0,0,0,1,0,0,1,categorization,4,1,9,93,bedroom,bedroom,target,72.741935483871,51.8387096774194,31,62.2903225806452,237,low,,,,,,,,,,,0,3,3,3,,,,,,,,,,,,,,,,,,,,,,,,,,,,,,,,,0,8,8,8,,,,,,,,,,,,,656.0164147519972,,,,,,,,,,,,,,,,,,,,,,,,,,,657.8515141459975,j,0,3.532390508997196,None,658.6318136890004,,,,1,,,,2024-04-05_18h44.45.450,SceneCat_2023_2,2023.2.3,119.57630146101036,2024-04-05 18h44.56.749243 +0200,
stimuli/img_x8jid.jpg,f,,,0,0,0,1,0,0,1,categorization,4,1,10,94,bedroom,bedroom,target,89.3214285714286,66.4642857142857,28,77.8928571428571,425,high,,,,,,,,,,,0,3,3,3,,,,,,,,,,,,,,,,,,,,,,,,,,,,,,,,,0,9,9,9,,,,,,,,,,,,,661.7646424269988,,,,,,,,,,,,,,,,,,,,,,,,,,,663.0174663849975,j,0,0.026830075999896508,None,,,,,1,,,,2024-04-05_18h44.45.450,SceneCat_2023_2,2023.2.3,119.57630146101036,2024-04-05 18h44.56.749243 +0200,
stimuli/img_di9lr.jpg,j,,,0,0,0,1,0,0,1,categorization,4,1,11,95,bedroom,kitchen,distractor,65.258064516129,40.5161290322581,31,52.8870967741936,217,low,,,,,,,,,,,0,3,3,3,,,,,,,,,,,,,,,,,,,,,,,,,,,,,,,,,0,10,10,10,,,,,,,,,,,,,663.4031172239993,,,,,,,,,,,,,,,,,,,,,,,,,,,665.1234832139999,j,1,0.1329882110003382,None,,,,,1,,,,2024-04-05_18h44.45.450,SceneCat_2023_2,2023.2.3,119.57630146101036,2024-04-05 18h44.56.749243 +0200,
stimuli/img_np28f.jpg,j,,,0,0,0,1,0,0,1,categorization,4,1,12,96,bedroom,kitchen,distractor,78.2352941176471,44.6764705882353,34,61.4558823529412,355,low,,,,,,,,,,,0,3,3,3,,,,,,,,,,,,,,,,,,,,,,,,,,,,,,,,,0,11,11,11,,,,,,,,,,,,,665.6184828839978,,,,,,,,,,,,,,,,,,,,,,,,,,,667.2105362509974,j,1,0.11395482599982643,None,,,,,1,,,,2024-04-05_18h44.45.450,SceneCat_2023_2,2023.2.3,119.57630146101036,2024-04-05 18h44.56.749243 +0200,
stimuli/img_i64cx.jpg,j,,,0,0,0,1,0,0,1,categorization,4,1,13,97,bedroom,living_room,distractor,79.5128205128205,60.7179487179487,39,70.1153846153846,205,high,,,,,,,,,,,0,3,3,3,,,,,,,,,,,,,,,,,,,,,,,,,,,,,,,,,0,12,12,12,,,,,,,,,,,,,667.6819167510002,,,,,,,,,,,,,,,,,,,,,,,,,,,669.5812602049991,j,1,0.02104388899897458,None,,,,,1,,,,2024-04-05_18h44.45.450,SceneCat_2023_2,2023.2.3,119.57630146101036,2024-04-05 18h44.56.749243 +0200,
stimuli/img_91ht8.jpg,f,,,0,0,0,1,0,0,1,categorization,4,1,14,98,bedroom,bedroom,target,90.4333333333333,74.0666666666667,30,82.25,470,high,,,,,,,,,,,0,3,3,3,,,,,,,,,,,,,,,,,,,,,,,,,,,,,,,,,0,13,13,13,,,,,,,,,,,,,669.9726944529975,,,,,,,,,,,,,,,,,,,,,,,,,,,671.8911940809994,j,0,0.07539128999997047,None,,,,,1,,,,2024-04-05_18h44.45.450,SceneCat_2023_2,2023.2.3,119.57630146101036,2024-04-05 18h44.56.749243 +0200,
stimuli/img_xz4gr.jpg,f,,,0,0,0,1,0,0,1,categorization,4,1,15,99,bedroom,bedroom,target,83.125,58.84375,32,70.984375,347,high,,,,,,,,,,,0,3,3,3,,,,,,,,,,,,,,,,,,,,,,,,,,,,,,,,,0,14,14,14,,,,,,,,,,,,,672.3255166519994,,,,,,,,,,,,,,,,,,,,,,,,,,,674.2781822949983,j,0,0.055805130999942776,None,,,,,1,,,,2024-04-05_18h44.45.450,SceneCat_2023_2,2023.2.3,119.57630146101036,2024-04-05 18h44.56.749243 +0200,
stimuli/img_ys3qz.jpg,f,,,0,0,0,1,0,0,1,categorization,4,1,16,100,bedroom,bedroom,target,46.2972972972973,29.7837837837838,37,38.0405405405405,77,low,,,,,,,,,,,0,3,3,3,,,,,,,,,,,,,,,,,,,,,,,,,,,,,,,,,0,15,15,15,,,,,,,,,,,,,674.6993793869988,,,,,,,,,,,,,,,,,,,,,,,,,,,676.5126619839975,j,0,0.061493836001318414,None,,,,,1,,,,2024-04-05_18h44.45.450,SceneCat_2023_2,2023.2.3,119.57630146101036,2024-04-05 18h44.56.749243 +0200,
stimuli/img_x1lo7.jpg,j,,,0,0,0,1,0,0,1,categorization,4,1,17,101,bedroom,kitchen,distractor,79.4814814814815,62.2592592592593,27,70.8703703703704,570,high,,,,,,,,,,,0,3,3,3,,,,,,,,,,,,,,,,,,,,,,,,,,,,,,,,,0,16,16,16,,,,,,,,,,,,,676.9335228790005,,,,,,,,,,,,,,,,,,,,,,,,,,,678.8870350409998,j,1,0.06627746099911747,None,,,,,1,,,,2024-04-05_18h44.45.450,SceneCat_2023_2,2023.2.3,119.57630146101036,2024-04-05 18h44.56.749243 +0200,
stimuli/img_i84x0.jpg,f,,,0,0,0,1,0,0,1,categorization,4,1,18,102,bedroom,bedroom,target,82.1290322580645,69.9354838709677,31,76.0322580645161,406,high,,,,,,,,,,,0,3,3,3,,,,,,,,,,,,,,,,,,,,,,,,,,,,,,,,,0,17,17,17,,,,,,,,,,,,,679.3256583199982,,,,,,,,,,,,,,,,,,,,,,,,,,,680.8673871989995,j,0,0.11858307500006049,None,,,,,1,,,,2024-04-05_18h44.45.450,SceneCat_2023_2,2023.2.3,119.57630146101036,2024-04-05 18h44.56.749243 +0200,
stimuli/img_opxap.jpg,f,,,0,0,0,1,0,0,1,categorization,4,1,19,103,bedroom,bedroom,target,79.8823529411765,55.6764705882353,34,67.7794117647059,309,high,,,,,,,,,,,0,3,3,3,,,,,,,,,,,,,,,,,,,,,,,,,,,,,,,,,0,18,18,18,,,,,,,,,,,,,681.3445334669996,,,,,,,,,,,,,,,,,,,,,,,,,,,683.1336571889988,j,0,0.031031744998472277,None,,,,,1,,,,2024-04-05_18h44.45.450,SceneCat_2023_2,2023.2.3,119.57630146101036,2024-04-05 18h44.56.749243 +0200,
stimuli/img_07c1w.jpg,f,,,0,0,0,1,0,0,1,categorization,4,1,20,104,bedroom,bedroom,target,78.7567567567568,63.2162162162162,37,70.9864864864865,348,high,,,,,,,,,,,0,3,3,3,,,,,,,,,,,,,,,,,,,,,,,,,,,,,,,,,0,19,19,19,,,,,,,,,,,,,683.532799528999,,,,,,,,,,,,,,,,,,,,,,,,,,,685.1349467149994,j,0,0.18273072100055288,None,,,,,1,,,,2024-04-05_18h44.45.450,SceneCat_2023_2,2023.2.3,119.57630146101036,2024-04-05 18h44.56.749243 +0200,
stimuli/img_xtizs.jpg,j,,,0,0,0,1,0,0,1,categorization,4,1,21,105,bedroom,kitchen,distractor,47.8387096774194,27.8064516129032,31,37.8225806451613,76,low,,,,,,,,,,,0,3,3,3,,,,,,,,,,,,,,,,,,,,,,,,,,,,,,,,,0,20,20,20,,,,,,,,,,,,,685.6744836769976,,,,,,,,,,,,,,,,,,,,,,,,,,,687.0113645189995,j,1,0.292723038000986,None,,,,,1,,,,2024-04-05_18h44.45.450,SceneCat_2023_2,2023.2.3,119.57630146101036,2024-04-05 18h44.56.749243 +0200,
stimuli/img_b2jli.jpg,f,,,0,0,0,1,0,0,1,categorization,4,1,22,106,bedroom,bedroom,target,80.5909090909091,64.0909090909091,22,72.3409090909091,367,high,,,,,,,,,,,0,3,3,3,,,,,,,,,,,,,,,,,,,,,,,,,,,,,,,,,0,21,21,21,,,,,,,,,,,,,687.6726057819978,,,,,,,,,,,,,,,,,,,,,,,,,,,689.4500300399995,j,0,0.2104810249984439,None,,,,,1,,,,2024-04-05_18h44.45.450,SceneCat_2023_2,2023.2.3,119.57630146101036,2024-04-05 18h44.56.749243 +0200,
stimuli/img_m7i17.jpg,f,,,0,0,0,1,0,0,1,categorization,4,1,23,107,bedroom,bedroom,target,44.8965517241379,29.2413793103448,29,37.0689655172414,74,low,,,,,,,,,,,0,3,3,3,,,,,,,,,,,,,,,,,,,,,,,,,,,,,,,,,0,22,22,22,,,,,,,,,,,,,690.0122697939987,,,,,,,,,,,,,,,,,,,,,,,,,,,691.1350279539984,j,0,0.8775054170000658,None,691.8948174289981,,,,1,,,,2024-04-05_18h44.45.450,SceneCat_2023_2,2023.2.3,119.57630146101036,2024-04-05 18h44.56.749243 +0200,
stimuli/img_sgt5b.jpg,f,,,0,0,0,1,0,0,1,categorization,4,1,24,108,bedroom,bedroom,target,90.0434782608696,80.4347826086957,23,85.2391304347826,497,high,,,,,,,,,,,0,3,3,3,,,,,,,,,,,,,,,,,,,,,,,,,,,,,,,,,0,23,23,23,,,,,,,,,,,,,692.375263209,,,,,,,,,,,,,,,,,,,,,,,,,,,694.4003894649977,j,0,0.35622691699973075,None,,,,,1,,,,2024-04-05_18h44.45.450,SceneCat_2023_2,2023.2.3,119.57630146101036,2024-04-05 18h44.56.749243 +0200,
stimuli/img_kwbzo.jpg,j,,,0,0,0,1,0,0,1,categorization,4,1,25,109,bedroom,kitchen,distractor,91.1071428571429,67.3928571428571,28,79.25,708,high,,,,,,,,,,,0,3,3,3,,,,,,,,,,,,,,,,,,,,,,,,,,,,,,,,,0,24,24,24,,,,,,,,,,,,,695.1243285839992,,,,,,,,,,,,,,,,,,,,,,,,,,,696.3139722289998,j,1,0.15210457200009841,None,,,,,1,,,,2024-04-05_18h44.45.450,SceneCat_2023_2,2023.2.3,119.57630146101036,2024-04-05 18h44.56.749243 +0200,
stimuli/img_d3t0o.jpg,f,,,0,0,0,1,0,0,1,categorization,4,1,26,110,bedroom,bedroom,target,68.5555555555556,43.1666666666667,36,55.8611111111111,178,low,,,,,,,,,,,0,3,3,3,,,,,,,,,,,,,,,,,,,,,,,,,,,,,,,,,0,25,25,25,,,,,,,,,,,,,696.8360501930001,,,,,,,,,,,,,,,,,,,,,,,,,,,698.7814724329983,j,0,0.20075444000030984,None,,,,,1,,,,2024-04-05_18h44.45.450,SceneCat_2023_2,2023.2.3,119.57630146101036,2024-04-05 18h44.56.749243 +0200,
stimuli/img_88mrj.jpg,f,,,0,0,0,1,0,0,1,categorization,4,1,27,111,bedroom,bedroom,target,85.7777777777778,60.3703703703704,27,73.0740740740741,376,high,,,,,,,,,,,0,3,3,3,,,,,,,,,,,,,,,,,,,,,,,,,,,,,,,,,0,26,26,26,,,,,,,,,,,,,699.3399746319992,,,,,,,,,,,,,,,,,,,,,,,,,,,700.8282409649983,j,0,0.09988468200026546,None,,,,,1,,,,2024-04-05_18h44.45.450,SceneCat_2023_2,2023.2.3,119.57630146101036,2024-04-05 18h44.56.749243 +0200,
stimuli/img_5949k.jpg,j,,,0,0,0,1,0,0,1,categorization,4,1,28,112,bedroom,kitchen,distractor,60.304347826087,39.4347826086956,23,49.8695652173913,192,low,,,,,,,,,,,0,3,3,3,,,,,,,,,,,,,,,,,,,,,,,,,,,,,,,,,0,27,27,27,,,,,,,,,,,,,701.2817813389993,,,,,,,,,,,,,,,,,,,,,,,,,,,702.9186534399996,j,1,0.059521903000131715,None,,,,,1,,,,2024-04-05_18h44.45.450,SceneCat_2023_2,2023.2.3,119.57630146101036,2024-04-05 18h44.56.749243 +0200,
stimuli/img_yxd19.jpg,j,,,0,0,0,1,0,0,1,memory,None,None,None,None,None,bedroom,None,60.2903225806452,31.5483870967742,31,45.9193548387097,105,low,new,100,,,,,,,,,0,3,3,3,,,,,,,,,,,,,,,,,,,,,,,,,,,,,,,,,,,,,0,0,0,13,,,,,,,,,703.3516386169977,,,,,,,,,,,,,,,,sicher alt,0.4868867449986283,,,,,,,,,,,,,,,,,,,1,,,,2024-04-05_18h44.45.450,SceneCat_2023_2,2023.2.3,119.57630146101036,2024-04-05 18h44.56.749243 +0200,
stimuli/img_91ht8.jpg,f,,,0,0,0,1,0,0,1,memory,4,1,14,98,bedroom,bedroom,target,90.4333333333333,74.0666666666667,30,82.25,470,high,old,111,,,,,,,,,0,3,3,3,,,,,,,,,,,,,,,,,,,,,,,,,,,,,,,,,,,,,0,1,1,24,,,,,,,,,706.4525510380008,,,,,,,,,,,,,,,,sicher alt,0.4150671700008388,,,,,,,,,,,,,,,,,,,1,,,,2024-04-05_18h44.45.450,SceneCat_2023_2,2023.2.3,119.57630146101036,2024-04-05 18h44.56.749243 +0200,
stimuli/img_opxap.jpg,f,,,0,0,0,1,0,0,1,memory,4,1,19,103,bedroom,bedroom,target,79.8823529411765,55.6764705882353,34,67.7794117647059,309,high,old,116,,,,,,,,,0,3,3,3,,,,,,,,,,,,,,,,,,,,,,,,,,,,,,,,,,,,,0,2,2,29,,,,,,,,,708.5325902990007,,,,,,,,,,,,,,,,sicher alt,0.3886108860024251,,,,,,,,,,,,,,,,,,,1,,,,2024-04-05_18h44.45.450,SceneCat_2023_2,2023.2.3,119.57630146101036,2024-04-05 18h44.56.749243 +0200,
stimuli/asdfghjkjhg.jpg,j,,,0,0,0,1,0,0,1,memory,None,None,None,None,None,None,None,None,None,None,None,None,None,catch,96,,,,,,,,,0,3,3,3,,,,,,,,,,,,,,,,,,,,,,,,,,,,,,,,,,,,,0,3,3,9,,,,,,,,,710.581781167999,,,,,,,,,,,,,,,,sicher alt,0.027738969001802616,,,,,,,,,,,,,,,,,,,1,,,,2024-04-05_18h44.45.450,SceneCat_2023_2,2023.2.3,119.57630146101036,2024-04-05 18h44.56.749243 +0200,
stimuli/img_13ozs.jpg,f,,,0,0,0,1,0,0,1,memory,4,1,7,91,bedroom,bedroom,target,36.5588235294118,21.5,34,29.0294117647059,51,low,old,94,,,,,,,,,0,3,3,3,,,,,,,,,,,,,,,,,,,,,,,,,,,,,,,,,,,,,0,4,4,7,,,,,,,,,712.2684515709989,,,,,,,,,,,,,,,,sicher alt,0.48372538599869586,,,,,,,,,,,,,,,,,,,1,,,,2024-04-05_18h44.45.450,SceneCat_2023_2,2023.2.3,119.57630146101036,2024-04-05 18h44.56.749243 +0200,
stimuli/img_r8rvk.jpg,j,,,0,0,0,1,0,0,1,memory,None,None,None,None,None,bedroom,None,76.5,48.9318181818182,44,62.7159090909091,242,low,new,104,,,,,,,,,0,3,3,3,,,,,,,,,,,,,,,,,,,,,,,,,,,,,,,,,,,,,0,5,5,17,,,,,,,,,714.419515439,,,,,,,,,,,,,,,,sicher alt,1.2646780259965453,,,,,,,,,,,,,,,,,,,1,,,,2024-04-05_18h44.45.450,SceneCat_2023_2,2023.2.3,119.57630146101036,2024-04-05 18h44.56.749243 +0200,
stimuli/img_1ccse.jpg,j,,,0,0,0,1,0,0,1,memory,None,None,None,None,None,bedroom,None,81.0526315789474,52.5526315789474,38,66.8026315789474,300,high,new,88,,,,,,,,,0,3,3,3,,,,,,,,,,,,,,,,,,,,,,,,,,,,,,,,,,,,,0,6,6,1,,,,,,,,,717.3750258330001,,,,,,,,,,,,,,,,sicher alt,0.6532140830022399,,,,,,,,,,,,,,,,,,,1,,,,2024-04-05_18h44.45.450,SceneCat_2023_2,2023.2.3,119.57630146101036,2024-04-05 18h44.56.749243 +0200,
stimuli/img_m7i17.jpg,j,,,0,0,0,1,0,0,1,memory,None,None,None,None,None,bedroom,None,44.8965517241379,29.2413793103448,29,37.0689655172414,74,low,new,89,,,,,,,,,0,3,3,3,,,,,,,,,,,,,,,,,,,,,,,,,,,,,,,,,,,,,0,7,7,2,,,,,,,,,719.6927104610004,,,,,,,,,,,,,,,,sicher alt,0.23909086400090018,,,,,,,,,,,,,,,,,,,1,,,,2024-04-05_18h44.45.450,SceneCat_2023_2,2023.2.3,119.57630146101036,2024-04-05 18h44.56.749243 +0200,
stimuli/img_d3t0o.jpg,f,,,0,0,0,1,0,0,1,memory,4,1,26,110,bedroom,bedroom,target,68.5555555555556,43.1666666666667,36,55.8611111111111,178,low,old,93,,,,,,,,,0,3,3,3,,,,,,,,,,,,,,,,,,,,,,,,,,,,,,,,,,,,,0,8,8,6,,,,,,,,,721.5984948730002,,,,,,,,,,,,,,,,sicher alt,0.5888248859992018,,,,,,,,,,,,,,,,,,,1,,,,2024-04-05_18h44.45.450,SceneCat_2023_2,2023.2.3,119.57630146101036,2024-04-05 18h44.56.749243 +0200,
