stimulus,correct_answer,correct_1,bedrooms_1,living_rooms_1,kitchens_1,kitchens_2,living_rooms_2,bedrooms_2,subject_id,task,block_total,block_scene,trial_block,trial_total,target_cat,category,cond_cat,cond_mem,conceptual,perceptual,typicality,n,p_typicality,p_conceptual,p_perceptual,r_typicality,r_conceptual,r_perceptual,cat_training_trials.thisRepN,cat_training_trials.thisTrialN,cat_training_trials.thisN,cat_training_trials.thisIndex,memo_training_trials.thisRepN,memo_training_trials.thisTrialN,memo_training_trials.thisN,memo_training_trials.thisIndex,categorization_trials.thisRepN,categorization_trials.thisTrialN,categorization_trials.thisN,categorization_trials.thisIndex,kitchen_a_categorization_trials.thisRepN,kitchen_a_categorization_trials.thisTrialN,kitchen_a_categorization_trials.thisN,kitchen_a_categorization_trials.thisIndex,kitchen_a_memotest.thisRepN,kitchen_a_memotest.thisTrialN,kitchen_a_memotest.thisN,kitchen_a_memotest.thisIndex,kitchen_b_categorization_trials.thisRepN,kitchen_b_categorization_trials.thisTrialN,kitchen_b_categorization_trials.thisN,kitchen_b_categorization_trials.thisIndex,kitchen_b_memotest.thisRepN,kitchen_b_memotest.thisTrialN,kitchen_b_memotest.thisN,kitchen_b_memotest.thisIndex,living_a_categorization_trials.thisRepN,living_a_categorization_trials.thisTrialN,living_a_categorization_trials.thisN,living_a_categorization_trials.thisIndex,living_a_memotest.thisRepN,living_a_memotest.thisTrialN,living_a_memotest.thisN,living_a_memotest.thisIndex,living_b_categorization_trials.thisRepN,living_b_categorization_trials.thisTrialN,living_b_categorization_trials.thisN,living_b_categorization_trials.thisIndex,living_b_memotest.thisRepN,living_b_memotest.thisTrialN,living_b_memotest.thisN,living_b_memotest.thisIndex,bed_a_categorization_trials.thisRepN,bed_a_categorization_trials.thisTrialN,bed_a_categorization_trials.thisN,bed_a_categorization_trials.thisIndex,bed_a_memotest.thisRepN,bed_a_memotest.thisTrialN,bed_a_memotest.thisN,bed_a_memotest.thisIndex,bed_b_categorization_trials.thisRepN,bed_b_categorization_trials.thisTrialN,bed_b_categorization_trials.thisN,bed_b_categorization_trials.thisIndex,bed_b_memotest.thisRepN,bed_b_memotest.thisTrialN,bed_b_memotest.thisN,bed_b_memotest.thisIndex,thisRow.t,notes,instructions_cat_2.started,instructions_cat_2.stopped,cat_training_key.keys,cat_training_key.corr,cat_training_key.rt,cat_training_key.duration,memo_training_slider_key_resp.keys,memo_training_slider_key_resp.rt,memo_training_slider_key_resp.duration,bed_b_text_2.started,bed_b_block_no.started,bed_picture_image.started,bed_picture_resp.keys,bed_picture_resp.corr,bed_picture_resp.rt,bed_picture_resp.duration,bed_picture_image.stopped,memotest_task_slider_key_resp.keys,memotest_task_slider_key_resp.rt,memotest_task_slider_key_resp.duration,kitchen_fix.started,kitchen_picture_resp.keys,kitchen_picture_resp.corr,kitchen_picture_resp.rt,kitchen_picture_resp.duration,living_a_text_2.started,living_a_block_no.started,living_picture_image.started,living_picture_resp.keys,living_picture_resp.corr,living_picture_resp.rt,living_picture_resp.duration,living_picture_image.stopped,bed_a_text_2.started,bed_a_block_no.started,living_b_text_2.started,living_b_block_no.started,vpcode,participant,Alter,Geschlecht,Haendigkeit,date,expName,psychopyVersion,frameRate,expStart,
,,,,,,,,,,,,,,,,,,,,,,,,,,,,,,,,,,,,,,,,,,,,,,,,,,,,,,,,,,,,,,,,,,,,,,,,,,,,,,,,,,,,,,,,,,,,,,,,,,,,,,,,,,,,,,,,,,,,,,,,,,,,,,,,,1,,,,2024-06-18_12h23.11.127,SceneCat_2023_2_key_resp,2024.1.1,None,2024-06-18 12h23.58.114316 +0200,
,,,,,,,,,,,,,,,,,,,,,,,,,,,,,,,,,,,,,,,,,,,,,,,,,,,,,,,,,,,,,,,,,,,,,,,,,,,,,,,,,,,,,,,,,,,,,,,,,,,,,,,,,,,,,,,,,,,,,,,,,,,,,,,,,1,,,,2024-06-18_12h23.11.127,SceneCat_2023_2_key_resp,2024.1.1,None,2024-06-18 12h23.58.114316 +0200,
,,,,,,,,,,,,,,,,,,,,,,,,,,,,,,,,,,,,,,,,,,,,,,,,,,,,,,,,,,,,,,,,,,,,,,,,,,,,,,,,,,,,,,,,,,,,,,,,,,,,,,,,,,,,,,,,,,,,,,,,,,,,,,,,,1,,,,2024-06-18_12h23.11.127,SceneCat_2023_2_key_resp,2024.1.1,None,2024-06-18 12h23.58.114316 +0200,
,,,,,,,,,,,,,,,,,,,,,,,,,,,,,,,,,,,,,,,,,,,,,,,,,,,,,,,,,,,,,,,,,,,,,,,,,,,,,,,,,,,,,,,,,,,,,,,,,,,,,,,,,,,,,,,,,,,,,,,,,,,,,,,,,1,,,,2024-06-18_12h23.11.127,SceneCat_2023_2_key_resp,2024.1.1,None,2024-06-18 12h23.58.114316 +0200,
,,,,,,,,,,,,,,,,,,,,,,,,,,,,,,,,,,,,,,,,,,,,,,,,,,,,,,,,,,,,,,,,,,,,,,,,,,,,,,,,,,,,,,,,,,,,,,,,,,,,,,,,,,,,,,,,,,,,,,,,,,,,,,,,,1,,,,2024-06-18_12h23.11.127,SceneCat_2023_2_key_resp,2024.1.1,None,2024-06-18 12h23.58.114316 +0200,
,,,,,,,,,,,,,,,,,,,,,,,,,,,,,,,,,,,,,,,,,,,,,,,,,,,,,,,,,,,,,,,,,,,,,,,,,,,,,,,,,,,,,,,,,,,4.806460625026375,5.296286958036944,,,,,,,,,,,,,,,,,,,,,,,,,,,,,,,,,,,,,1,,,,2024-06-18_12h23.11.127,SceneCat_2023_2_key_resp,2024.1.1,None,2024-06-18 12h23.58.114316 +0200,
,,,,,,,,,,,,,,,,,,,,,,,,,,,,,,,,,,,,,,,,,,,,,,,,,,,,,,,,,,,,,,,,,,,,,,,,,,,,,,,,,,,,,,,,,,,,,,,,,,,,,,,,,,,,,,,,,,,,,,,,,,,,,,,,,1,,,,2024-06-18_12h23.11.127,SceneCat_2023_2_key_resp,2024.1.1,None,2024-06-18 12h23.58.114316 +0200,
stimuli/train_15.jpg,f,,,,,,,,,,,,,,,,,,,,,,,,,,,,0,0,0,14,,,,,,,,,,,,,,,,,,,,,,,,,,,,,,,,,,,,,,,,,,,,,,,,,,,,,,,,,7.821726375026628,,,,j,0,10.061030832992401,None,,,,,,,,,,,,,,,,,,,,,,,,,,,,,,,,,1,,,,2024-06-18_12h23.11.127,SceneCat_2023_2_key_resp,2024.1.1,None,2024-06-18 12h23.58.114316 +0200,
stimuli/train_10.jpg,j,,,,,,,,,,,,,,,,,,,,,,,,,,,,0,1,1,9,,,,,,,,,,,,,,,,,,,,,,,,,,,,,,,,,,,,,,,,,,,,,,,,,,,,,,,,,11.071320208022371,,,,j,1,12.816753083025105,None,,,,,,,,,,,,,,,,,,,,,,,,,,,,,,,,,1,,,,2024-06-18_12h23.11.127,SceneCat_2023_2_key_resp,2024.1.1,None,2024-06-18 12h23.58.114316 +0200,
stimuli/train_12.jpg,j,,,,,,,,,,,,,,,,,,,,,,,,,,,,0,2,2,11,,,,,,,,,,,,,,,,,,,,,,,,,,,,,,,,,,,,,,,,,,,,,,,,,,,,,,,,,13.828514875029214,,,,j,1,15.733554832986556,None,,,,,,,,,,,,,,,,,,,,,,,,,,,,,,,,,1,,,,2024-06-18_12h23.11.127,SceneCat_2023_2_key_resp,2024.1.1,None,2024-06-18 12h23.58.114316 +0200,
stimuli/train_16.jpg,f,,,,,,,,,,,,,,,,,,,,,,,,,,,,0,3,3,15,,,,,,,,,,,,,,,,,,,,,,,,,,,,,,,,,,,,,,,,,,,,,,,,,,,,,,,,,16.745128375012428,,,,j,0,18.347671833005734,None,,,,,,,,,,,,,,,,,,,,,,,,,,,,,,,,,1,,,,2024-06-18_12h23.11.127,SceneCat_2023_2_key_resp,2024.1.1,None,2024-06-18 12h23.58.114316 +0200,
stimuli/train_8.jpg,j,,,,,,,,,,,,,,,,,,,,,,,,,,,,0,4,4,7,,,,,,,,,,,,,,,,,,,,,,,,,,,,,,,,,,,,,,,,,,,,,,,,,,,,,,,,,19.36208983301185,,,,j,1,21.558935667038895,None,,,,,,,,,,,,,,,,,,,,,,,,,,,,,,,,,1,,,,2024-06-18_12h23.11.127,SceneCat_2023_2_key_resp,2024.1.1,None,2024-06-18 12h23.58.114316 +0200,
stimuli/train_5.jpg,j,,,,,,,,,,,,,,,,,,,,,,,,,,,,0,5,5,4,,,,,,,,,,,,,,,,,,,,,,,,,,,,,,,,,,,,,,,,,,,,,,,,,,,,,,,,,22.571814833034296,,,,j,1,24.28644712502137,None,,,,,,,,,,,,,,,,,,,,,,,,,,,,,,,,,1,,,,2024-06-18_12h23.11.127,SceneCat_2023_2_key_resp,2024.1.1,None,2024-06-18 12h23.58.114316 +0200,
stimuli/train_13.jpg,f,,,,,,,,,,,,,,,,,,,,,,,,,,,,0,6,6,12,,,,,,,,,,,,,,,,,,,,,,,,,,,,,,,,,,,,,,,,,,,,,,,,,,,,,,,,,25.295423833013047,,,,j,0,26.874440582992975,None,,,,,,,,,,,,,,,,,,,,,,,,,,,,,,,,,1,,,,2024-06-18_12h23.11.127,SceneCat_2023_2_key_resp,2024.1.1,None,2024-06-18 12h23.58.114316 +0200,
stimuli/train_4.jpg,j,,,,,,,,,,,,,,,,,,,,,,,,,,,,0,7,7,3,,,,,,,,,,,,,,,,,,,,,,,,,,,,,,,,,,,,,,,,,,,,,,,,,,,,,,,,,27.88898995803902,,,,j,1,29.641410292009823,None,,,,,,,,,,,,,,,,,,,,,,,,,,,,,,,,,1,,,,2024-06-18_12h23.11.127,SceneCat_2023_2_key_resp,2024.1.1,None,2024-06-18 12h23.58.114316 +0200,
stimuli/train_3.jpg,j,,,,,,,,,,,,,,,,,,,,,,,,,,,,0,8,8,2,,,,,,,,,,,,,,,,,,,,,,,,,,,,,,,,,,,,,,,,,,,,,,,,,,,,,,,,,30.655389124993235,,,,j,1,32.4750519170193,None,,,,,,,,,,,,,,,,,,,,,,,,,,,,,,,,,1,,,,2024-06-18_12h23.11.127,SceneCat_2023_2_key_resp,2024.1.1,None,2024-06-18 12h23.58.114316 +0200,
stimuli/train_7.jpg,j,,,,,,,,,,,,,,,,,,,,,,,,,,,,0,9,9,6,,,,,,,,,,,,,,,,,,,,,,,,,,,,,,,,,,,,,,,,,,,,,,,,,,,,,,,,,33.47951358300634,,,,j,1,34.859958124987315,None,,,,,,,,,,,,,,,,,,,,,,,,,,,,,,,,,1,,,,2024-06-18_12h23.11.127,SceneCat_2023_2_key_resp,2024.1.1,None,2024-06-18 12h23.58.114316 +0200,
stimuli/train_9.jpg,j,,,,,,,,,,,,,,,,,,,,,,,,,,,,0,10,10,8,,,,,,,,,,,,,,,,,,,,,,,,,,,,,,,,,,,,,,,,,,,,,,,,,,,,,,,,,35.8624045419856,,,,j,1,37.37709287501639,None,,,,,,,,,,,,,,,,,,,,,,,,,,,,,,,,,1,,,,2024-06-18_12h23.11.127,SceneCat_2023_2_key_resp,2024.1.1,None,2024-06-18 12h23.58.114316 +0200,
stimuli/train_2.jpg,j,,,,,,,,,,,,,,,,,,,,,,,,,,,,0,11,11,1,,,,,,,,,,,,,,,,,,,,,,,,,,,,,,,,,,,,,,,,,,,,,,,,,,,,,,,,,38.389718917023856,,,,j,1,40.100982500007376,None,,,,,,,,,,,,,,,,,,,,,,,,,,,,,,,,,1,,,,2024-06-18_12h23.11.127,SceneCat_2023_2_key_resp,2024.1.1,None,2024-06-18 12h23.58.114316 +0200,
stimuli/train_11.jpg,j,,,,,,,,,,,,,,,,,,,,,,,,,,,,0,12,12,10,,,,,,,,,,,,,,,,,,,,,,,,,,,,,,,,,,,,,,,,,,,,,,,,,,,,,,,,,41.12280825001653,,,,j,1,42.5032262080349,None,,,,,,,,,,,,,,,,,,,,,,,,,,,,,,,,,1,,,,2024-06-18_12h23.11.127,SceneCat_2023_2_key_resp,2024.1.1,None,2024-06-18 12h23.58.114316 +0200,
stimuli/train_1.jpg,j,,,,,,,,,,,,,,,,,,,,,,,,,,,,0,13,13,0,,,,,,,,,,,,,,,,,,,,,,,,,,,,,,,,,,,,,,,,,,,,,,,,,,,,,,,,,43.51291945803678,,,,j,1,49.508042000001296,None,,,,,,,,,,,,,,,,,,,,,,,,,,,,,,,,,1,,,,2024-06-18_12h23.11.127,SceneCat_2023_2_key_resp,2024.1.1,None,2024-06-18 12h23.58.114316 +0200,
stimuli/train_14.jpg,f,,,,,,,,,,,,,,,,,,,,,,,,,,,,0,14,14,13,,,,,,,,,,,,,,,,,,,,,,,,,,,,,,,,,,,,,,,,,,,,,,,,,,,,,,,,,50.51313120801933,,,,j,0,52.809838166984264,None,,,,,,,,,,,,,,,,,,,,,,,,,,,,,,,,,1,,,,2024-06-18_12h23.11.127,SceneCat_2023_2_key_resp,2024.1.1,None,2024-06-18 12h23.58.114316 +0200,
stimuli/train_6.jpg,j,,,,,,,,,,,,,,,,,,,,,,,,,,,,0,15,15,5,,,,,,,,,,,,,,,,,,,,,,,,,,,,,,,,,,,,,,,,,,,,,,,,,,,,,,,,,53.83017316699261,,,,j,1,55.40855829202337,None,,,,,,,,,,,,,,,,,,,,,,,,,,,,,,,,,1,,,,2024-06-18_12h23.11.127,SceneCat_2023_2_key_resp,2024.1.1,None,2024-06-18 12h23.58.114316 +0200,
,,,,,,,,,,,,,,,,,,,,,,,,,,,,,,,,,,,,,,,,,,,,,,,,,,,,,,,,,,,,,,,,,,,,,,,,,,,,,,,,,,,,,,,,,,,,,,,,,,,,,,,,,,,,,,,,,,,,,,,,,,,,,,,,,1,,,,2024-06-18_12h23.11.127,SceneCat_2023_2_key_resp,2024.1.1,None,2024-06-18 12h23.58.114316 +0200,
stimuli/train_1.jpg,,1,,,,,,,,,,,,,,,,,,,,,,,,,,,,,,,0,0,0,0,,,,,,,,,,,,,,,,,,,,,,,,,,,,,,,,,,,,,,,,,,,,,,,,,,,,,58.10454908298561,,,,,,,,j,62.24279458302772,None,,,,,,,,,,,,,,,,,,,,,,,,,,,,,,1,,,,2024-06-18_12h23.11.127,SceneCat_2023_2_key_resp,2024.1.1,None,2024-06-18 12h23.58.114316 +0200,
stimuli/train_12.jpg,,1,,,,,,,,,,,,,,,,,,,,,,,,,,,,,,,0,1,1,11,,,,,,,,,,,,,,,,,,,,,,,,,,,,,,,,,,,,,,,,,,,,,,,,,,,,,63.74747404200025,,,,,,,,j,65.79542870802106,None,,,,,,,,,,,,,,,,,,,,,,,,,,,,,,1,,,,2024-06-18_12h23.11.127,SceneCat_2023_2_key_resp,2024.1.1,None,2024-06-18 12h23.58.114316 +0200,
stimuli/train_20.jpg,,3,,,,,,,,,,,,,,,,,,,,,,,,,,,,,,,0,2,2,15,,,,,,,,,,,,,,,,,,,,,,,,,,,,,,,,,,,,,,,,,,,,,,,,,,,,,67.31329704204109,,,,,,,,j,69.48710916703567,None,,,,,,,,,,,,,,,,,,,,,,,,,,,,,,1,,,,2024-06-18_12h23.11.127,SceneCat_2023_2_key_resp,2024.1.1,None,2024-06-18 12h23.58.114316 +0200,
stimuli/train_10.jpg,,1,,,,,,,,,,,,,,,,,,,,,,,,,,,,,,,0,3,3,9,,,,,,,,,,,,,,,,,,,,,,,,,,,,,,,,,,,,,,,,,,,,,,,,,,,,,70.97990825003944,,,,,,,,j,72.99255770799937,None,,,,,,,,,,,,,,,,,,,,,,,,,,,,,,1,,,,2024-06-18_12h23.11.127,SceneCat_2023_2_key_resp,2024.1.1,None,2024-06-18 12h23.58.114316 +0200,
stimuli/train_2.jpg,,1,,,,,,,,,,,,,,,,,,,,,,,,,,,,,,,0,4,4,1,,,,,,,,,,,,,,,,,,,,,,,,,,,,,,,,,,,,,,,,,,,,,,,,,,,,,74.49771550000878,,,,,,,,j,75.93653491704026,None,,,,,,,,,,,,,,,,,,,,,,,,,,,,,,1,,,,2024-06-18_12h23.11.127,SceneCat_2023_2_key_resp,2024.1.1,None,2024-06-18 12h23.58.114316 +0200,
stimuli/train_7.jpg,,1,,,,,,,,,,,,,,,,,,,,,,,,,,,,,,,0,5,5,6,,,,,,,,,,,,,,,,,,,,,,,,,,,,,,,,,,,,,,,,,,,,,,,,,,,,,77.44798829202773,,,,,,,,j,78.91762679204112,None,,,,,,,,,,,,,,,,,,,,,,,,,,,,,,1,,,,2024-06-18_12h23.11.127,SceneCat_2023_2_key_resp,2024.1.1,None,2024-06-18 12h23.58.114316 +0200,
stimuli/train_9.jpg,,1,,,,,,,,,,,,,,,,,,,,,,,,,,,,,,,0,6,6,8,,,,,,,,,,,,,,,,,,,,,,,,,,,,,,,,,,,,,,,,,,,,,,,,,,,,,80.41467720799847,,,,,,,,j,81.70248654199531,None,,,,,,,,,,,,,,,,,,,,,,,,,,,,,,1,,,,2024-06-18_12h23.11.127,SceneCat_2023_2_key_resp,2024.1.1,None,2024-06-18 12h23.58.114316 +0200,
stimuli/train_8.jpg,,1,,,,,,,,,,,,,,,,,,,,,,,,,,,,,,,0,7,7,7,,,,,,,,,,,,,,,,,,,,,,,,,,,,,,,,,,,,,,,,,,,,,,,,,,,,,83.31454291701084,,,,,,,,j,85.02913854201324,None,,,,,,,,,,,,,,,,,,,,,,,,,,,,,,1,,,,2024-06-18_12h23.11.127,SceneCat_2023_2_key_resp,2024.1.1,None,2024-06-18 12h23.58.114316 +0200,
stimuli/train_19.jpg,,3,,,,,,,,,,,,,,,,,,,,,,,,,,,,,,,0,8,8,14,,,,,,,,,,,,,,,,,,,,,,,,,,,,,,,,,,,,,,,,,,,,,,,,,,,,,86.53000941703795,,,,,,,,j,88.06645645800745,None,,,,,,,,,,,,,,,,,,,,,,,,,,,,,,1,,,,2024-06-18_12h23.11.127,SceneCat_2023_2_key_resp,2024.1.1,None,2024-06-18 12h23.58.114316 +0200,
stimuli/train_5.jpg,,1,,,,,,,,,,,,,,,,,,,,,,,,,,,,,,,0,9,9,4,,,,,,,,,,,,,,,,,,,,,,,,,,,,,,,,,,,,,,,,,,,,,,,,,,,,,89.56464829202741,,,,,,,,j,91.04257004201645,None,,,,,,,,,,,,,,,,,,,,,,,,,,,,,,1,,,,2024-06-18_12h23.11.127,SceneCat_2023_2_key_resp,2024.1.1,None,2024-06-18 12h23.58.114316 +0200,
stimuli/train_3.jpg,,1,,,,,,,,,,,,,,,,,,,,,,,,,,,,,,,0,10,10,2,,,,,,,,,,,,,,,,,,,,,,,,,,,,,,,,,,,,,,,,,,,,,,,,,,,,,92.54827841703082,,,,,,,,j,93.8441552920267,None,,,,,,,,,,,,,,,,,,,,,,,,,,,,,,1,,,,2024-06-18_12h23.11.127,SceneCat_2023_2_key_resp,2024.1.1,None,2024-06-18 12h23.58.114316 +0200,
stimuli/train_18.jpg,,3,,,,,,,,,,,,,,,,,,,,,,,,,,,,,,,0,11,11,13,,,,,,,,,,,,,,,,,,,,,,,,,,,,,,,,,,,,,,,,,,,,,,,,,,,,,95.34226879203925,,,,,,,,j,99.51030683302088,None,,,,,,,,,,,,,,,,,,,,,,,,,,,,,,1,,,,2024-06-18_12h23.11.127,SceneCat_2023_2_key_resp,2024.1.1,None,2024-06-18 12h23.58.114316 +0200,
stimuli/train_17.jpg,,3,,,,,,,,,,,,,,,,,,,,,,,,,,,,,,,0,12,12,12,,,,,,,,,,,,,,,,,,,,,,,,,,,,,,,,,,,,,,,,,,,,,,,,,,,,,101.01428262499394,,,,,,,,j,106.74714895803481,None,,,,,,,,,,,,,,,,,,,,,,,,,,,,,,1,,,,2024-06-18_12h23.11.127,SceneCat_2023_2_key_resp,2024.1.1,None,2024-06-18 12h23.58.114316 +0200,
stimuli/train_6.jpg,,1,,,,,,,,,,,,,,,,,,,,,,,,,,,,,,,0,13,13,5,,,,,,,,,,,,,,,,,,,,,,,,,,,,,,,,,,,,,,,,,,,,,,,,,,,,,108.24315129203023,,,,,,,,j,109.7314267079928,None,,,,,,,,,,,,,,,,,,,,,,,,,,,,,,1,,,,2024-06-18_12h23.11.127,SceneCat_2023_2_key_resp,2024.1.1,None,2024-06-18 12h23.58.114316 +0200,
stimuli/train_11.jpg,,1,,,,,,,,,,,,,,,,,,,,,,,,,,,,,,,0,14,14,10,,,,,,,,,,,,,,,,,,,,,,,,,,,,,,,,,,,,,,,,,,,,,,,,,,,,,111.23257333302172,,,,,,,,j,113.56436520803254,None,,,,,,,,,,,,,,,,,,,,,,,,,,,,,,1,,,,2024-06-18_12h23.11.127,SceneCat_2023_2_key_resp,2024.1.1,None,2024-06-18 12h23.58.114316 +0200,
stimuli/train_4.jpg,,1,,,,,,,,,,,,,,,,,,,,,,,,,,,,,,,0,15,15,3,,,,,,,,,,,,,,,,,,,,,,,,,,,,,,,,,,,,,,,,,,,,,,,,,,,,,115.06629987503402,,,,,,,,j,117.63970325002447,None,,,,,,,,,,,,,,,,,,,,,,,,,,,,,,1,,,,2024-06-18_12h23.11.127,SceneCat_2023_2_key_resp,2024.1.1,None,2024-06-18 12h23.58.114316 +0200,
,,,,,,,,,,,,,,,,,,,,,,,,,,,,,,,,,,,,,,,,,,,,,,,,,,,,,,,,,,,,,,,,,,,,,,,,,,,,,,,,,,,,,,,,,,,,,,,,,,,,,,,,,,,,,,,,,,,,,,,,,,,,,,,,,1,,,,2024-06-18_12h23.11.127,SceneCat_2023_2_key_resp,2024.1.1,None,2024-06-18 12h23.58.114316 +0200,
stimuli/img_bj2gr.png,j,,0,0,0,0,0,1,1,categorization,1,2,8,343,bedrooms,bedrooms,target,None,65.25,44.8,55.025,40,4,4,4,4,4,4,,,,,,,,,0,0,0,0,,,,,,,,,,,,,,,,,,,,,,,,,,,,,,,,,,,,,,,,,0,0,0,7,,,,,128.72037795803044,,,,,,,,,,,129.02081304200692,129.02081304200692,132.2190929580247,j,1,132.55626112502068,None,,,,,,,,,,,,,,,,,,,,,,,1,,,,2024-06-18_12h23.11.127,SceneCat_2023_2_key_resp,2024.1.1,None,2024-06-18 12h23.58.114316 +0200,
stimuli/img_cgdyc.png,j,,0,0,0,0,0,1,1,categorization,1,2,15,350,bedrooms,bedrooms,target,None,32.93023255813954,14.04651162790698,23.48837209302326,43,1,1,1,1,1,1,,,,,,,,,0,0,0,0,,,,,,,,,,,,,,,,,,,,,,,,,,,,,,,,,,,,,,,,,0,1,1,14,,,,,132.57089783303672,,,,,,,,,,,,,134.451222417003,j,1,134.91858404199593,None,,,,,,,,,,,,,,,,,,,,,,,1,,,,2024-06-18_12h23.11.127,SceneCat_2023_2_key_resp,2024.1.1,None,2024-06-18 12h23.58.114316 +0200,
stimuli/img_3bxjb.png,j,,0,0,0,0,0,1,1,categorization,1,2,24,359,bedrooms,bedrooms,target,None,87.28571428571429,72.65714285714286,79.97142857142858,35,10,10,10,9,9,10,,,,,,,,,0,0,0,0,,,,,,,,,,,,,,,,,,,,,,,,,,,,,,,,,,,,,,,,,0,2,2,23,,,,,134.93634287500754,,,,,,,,,,,,,136.4735818330082,j,1,136.77467483299552,None,,,,,,,,,,,,,,,,,,,,,,,1,,,,2024-06-18_12h23.11.127,SceneCat_2023_2_key_resp,2024.1.1,None,2024-06-18 12h23.58.114316 +0200,
stimuli/img_t4hvr.png,j,,0,0,0,0,0,1,1,categorization,1,2,23,358,bedrooms,bedrooms,target,None,61.69230769230769,39.76923076923077,50.73076923076923,39,3,3,3,4,3,4,,,,,,,,,0,0,0,0,,,,,,,,,,,,,,,,,,,,,,,,,,,,,,,,,,,,,,,,,0,3,3,22,,,,,136.8017464579898,,,,,,,,,,,,,138.18515249999473,j,1,138.38606733299093,None,,,,,,,,,,,,,,,,,,,,,,,1,,,,2024-06-18_12h23.11.127,SceneCat_2023_2_key_resp,2024.1.1,None,2024-06-18 12h23.58.114316 +0200,
stimuli/img_anzgh.png,j,,0,0,0,0,0,1,1,categorization,1,2,1,336,bedrooms,bedrooms,target,None,75.10526315789474,55.76315789473684,65.4342105263158,38,6,6,6,6,6,6,,,,,,,,,0,0,0,0,,,,,,,,,,,,,,,,,,,,,,,,,,,,,,,,,,,,,,,,,0,4,4,0,,,,,138.51925004203804,,,,,,,,,,,,,140.16734149999684,j,1,140.4126474999939,None,,,,,,,,,,,,,,,,,,,,,,,1,,,,2024-06-18_12h23.11.127,SceneCat_2023_2_key_resp,2024.1.1,None,2024-06-18 12h23.58.114316 +0200,
stimuli/img_kzg3h.png,j,,0,0,0,0,0,1,1,categorization,1,2,17,352,bedrooms,bedrooms,target,None,77.02777777777777,56.22222222222222,66.625,36,7,7,7,7,7,7,,,,,,,,,0,0,0,0,,,,,,,,,,,,,,,,,,,,,,,,,,,,,,,,,,,,,,,,,0,5,5,16,,,,,140.49386708298698,,,,,,,,,,,,,141.58467745798407,j,1,None,None,,,,,,,,,,,,,,,,,,,,,,,1,,,,2024-06-18_12h23.11.127,SceneCat_2023_2_key_resp,2024.1.1,None,2024-06-18 12h23.58.114316 +0200,
stimuli/img_okvvw.png,j,,0,0,0,0,0,1,1,categorization,1,2,9,344,bedrooms,bedrooms,target,None,50.58333333333334,32.11111111111111,41.34722222222223,36,2,2,2,2,2,3,,,,,,,,,0,0,0,0,,,,,,,,,,,,,,,,,,,,,,,,,,,,,,,,,,,,,,,,,0,6,6,8,,,,,142.07687691703904,,,,,,,,,,,,,143.3187245419831,j,1,143.60709941701498,None,,,,,,,,,,,,,,,,,,,,,,,1,,,,2024-06-18_12h23.11.127,SceneCat_2023_2_key_resp,2024.1.1,None,2024-06-18 12h23.58.114316 +0200,
stimuli/img_ic3os.png,j,,0,0,0,0,0,1,1,categorization,1,2,21,356,bedrooms,bedrooms,target,None,84.79069767441861,66.16279069767442,75.47674418604652,43,9,9,9,8,9,9,,,,,,,,,0,0,0,0,,,,,,,,,,,,,,,,,,,,,,,,,,,,,,,,,,,,,,,,,0,7,7,20,,,,,143.65251899999566,,,,,,,,,,,,,144.99991737504024,j,1,145.28486462502042,None,,,,,,,,,,,,,,,,,,,,,,,1,,,,2024-06-18_12h23.11.127,SceneCat_2023_2_key_resp,2024.1.1,None,2024-06-18 12h23.58.114316 +0200,
stimuli/img_wz6x5.png,f,,0,0,0,0,0,1,1,categorization,1,2,4,339,bedrooms,living_rooms,distractor,None,68.3695652173913,48.47826086956522,58.42391304347826,46,5,5,5,5,5,5,,,,,,,,,0,0,0,0,,,,,,,,,,,,,,,,,,,,,,,,,,,,,,,,,,,,,,,,,0,8,8,3,,,,,145.3352760830312,,,,,,,,,,,,,146.9427071250393,j,0,147.22600666701328,None,,,,,,,,,,,,,,,,,,,,,,,1,,,,2024-06-18_12h23.11.127,SceneCat_2023_2_key_resp,2024.1.1,None,2024-06-18 12h23.58.114316 +0200,
stimuli/img_2pnl2.png,j,,0,0,0,0,0,1,1,categorization,1,2,13,348,bedrooms,bedrooms,target,None,6.621621621621622,7.135135135135135,6.878378378378379,37,1,1,1,1,1,1,,,,,,,,,0,0,0,0,,,,,,,,,,,,,,,,,,,,,,,,,,,,,,,,,,,,,,,,,0,9,9,12,,,,,147.26898541703122,,,,,,,,,,,,,148.63278404198354,j,1,148.92089375003707,None,,,,,,,,,,,,,,,,,,,,,,,1,,,,2024-06-18_12h23.11.127,SceneCat_2023_2_key_resp,2024.1.1,None,2024-06-18 12h23.58.114316 +0200,
stimuli/img_anjr0.png,f,,0,0,0,0,0,1,1,categorization,1,2,16,351,bedrooms,kitchens,distractor,None,67.88888888888889,45.80555555555556,56.84722222222222,36,4,4,4,4,4,4,,,,,,,,,0,0,0,0,,,,,,,,,,,,,,,,,,,,,,,,,,,,,,,,,,,,,,,,,0,10,10,15,,,,,148.96937183302362,,,,,,,,,,,,,150.7170696670073,j,0,151.16676808299962,None,,,,,,,,,,,,,,,,,,,,,,,1,,,,2024-06-18_12h23.11.127,SceneCat_2023_2_key_resp,2024.1.1,None,2024-06-18 12h23.58.114316 +0200,
stimuli/img_5p2ql.png,j,,0,0,0,0,0,1,1,categorization,1,2,5,340,bedrooms,bedrooms,target,None,89.19565217391305,72.52173913043478,80.8586956521739,46,10,10,10,10,10,9,,,,,,,,,0,0,0,0,,,,,,,,,,,,,,,,,,,,,,,,,,,,,,,,,,,,,,,,,0,11,11,4,,,,,151.1943108330015,,,,,,,,,,,,,152.3338862080127,j,1,152.74784279201413,None,,,,,,,,,,,,,,,,,,,,,,,1,,,,2024-06-18_12h23.11.127,SceneCat_2023_2_key_resp,2024.1.1,None,2024-06-18 12h23.58.114316 +0200,
stimuli/img_z3yzz.png,j,,0,0,0,0,0,1,1,categorization,1,2,22,357,bedrooms,bedrooms,target,None,71.71052631578948,49.81578947368421,60.76315789473685,38,5,5,5,5,5,5,,,,,,,,,0,0,0,0,,,,,,,,,,,,,,,,,,,,,,,,,,,,,,,,,,,,,,,,,0,12,12,21,,,,,152.76154745800886,,,,,,,,,,,,,154.31032333301846,j,1,154.65243449999252,None,,,,,,,,,,,,,,,,,,,,,,,1,,,,2024-06-18_12h23.11.127,SceneCat_2023_2_key_resp,2024.1.1,None,2024-06-18 12h23.58.114316 +0200,
stimuli/img_v8dra.png,j,,0,0,0,0,0,1,1,categorization,1,2,11,346,bedrooms,bedrooms,target,None,61.77272727272727,38.79545454545455,50.28409090909091,44,3,3,3,3,4,3,,,,,,,,,0,0,0,0,,,,,,,,,,,,,,,,,,,,,,,,,,,,,,,,,,,,,,,,,0,13,13,10,,,,,154.67042179201962,,,,,,,,,,,,,156.434676917037,j,1,157.0131492500077,None,,,,,,,,,,,,,,,,,,,,,,,1,,,,2024-06-18_12h23.11.127,SceneCat_2023_2_key_resp,2024.1.1,None,2024-06-18 12h23.58.114316 +0200,
stimuli/img_g7870.png,f,,0,0,0,0,0,1,1,categorization,1,2,14,349,bedrooms,kitchens,distractor,None,68.70967741935483,44.2258064516129,56.46774193548387,31,4,4,4,4,4,4,,,,,,,,,0,0,0,0,,,,,,,,,,,,,,,,,,,,,,,,,,,,,,,,,,,,,,,,,0,14,14,13,,,,,157.02801904198714,,,,,,,,,,,,,158.10220733302413,j,0,158.430240583024,None,,,,,,,,,,,,,,,,,,,,,,,1,,,,2024-06-18_12h23.11.127,SceneCat_2023_2_key_resp,2024.1.1,None,2024-06-18 12h23.58.114316 +0200,
stimuli/img_73pyk.png,f,,0,0,0,0,0,1,1,categorization,1,2,3,338,bedrooms,living_rooms,distractor,None,69.27659574468085,47.27659574468085,58.27659574468085,47,5,5,5,5,5,5,,,,,,,,,0,0,0,0,,,,,,,,,,,,,,,,,,,,,,,,,,,,,,,,,,,,,,,,,0,15,15,2,,,,,158.46120495803189,,,,,,,,,,,,,159.68551583302906,j,0,160.17997450003168,None,,,,,,,,,,,,,,,,,,,,,,,1,,,,2024-06-18_12h23.11.127,SceneCat_2023_2_key_resp,2024.1.1,None,2024-06-18 12h23.58.114316 +0200,
stimuli/img_d0k76.png,f,,0,0,0,0,0,1,1,categorization,1,2,12,347,bedrooms,kitchens,distractor,None,67.0909090909091,46.3030303030303,56.6969696969697,33,4,4,4,4,4,4,,,,,,,,,0,0,0,0,,,,,,,,,,,,,,,,,,,,,,,,,,,,,,,,,,,,,,,,,0,16,16,11,,,,,160.1974617500091,,,,,,,,,,,,,162.0749246670166,j,0,162.62376212503295,None,,,,,,,,,,,,,,,,,,,,,,,1,,,,2024-06-18_12h23.11.127,SceneCat_2023_2_key_resp,2024.1.1,None,2024-06-18 12h23.58.114316 +0200,
stimuli/img_jivhq.png,j,,0,0,0,0,0,1,1,categorization,1,2,26,361,bedrooms,bedrooms,target,None,37,22.26530612244898,29.63265306122449,49,2,2,2,2,2,2,,,,,,,,,0,0,0,0,,,,,,,,,,,,,,,,,,,,,,,,,,,,,,,,,,,,,,,,,0,17,17,25,,,,,162.63810191699304,,,,,,,,,,,,,164.3840183329885,j,1,164.74985166703118,None,,,,,,,,,,,,,,,,,,,,,,,1,,,,2024-06-18_12h23.11.127,SceneCat_2023_2_key_resp,2024.1.1,None,2024-06-18 12h23.58.114316 +0200,
stimuli/img_ose78.png,j,,0,0,0,0,0,1,1,categorization,1,2,2,337,bedrooms,bedrooms,target,None,80.19444444444444,60.25,70.22222222222223,36,8,7,7,7,7,7,,,,,,,,,0,0,0,0,,,,,,,,,,,,,,,,,,,,,,,,,,,,,,,,,,,,,,,,,0,18,18,1,,,,,164.7642212919891,,,,,,,,,,,,,166.00190195802134,j,1,166.36721641698387,None,,,,,,,,,,,,,,,,,,,,,,,1,,,,2024-06-18_12h23.11.127,SceneCat_2023_2_key_resp,2024.1.1,None,2024-06-18 12h23.58.114316 +0200,
stimuli/img_fqgem.png,j,,0,0,0,0,0,1,1,categorization,1,2,25,360,bedrooms,bedrooms,target,None,80.75,61.475,71.1125,40,8,8,8,8,8,8,,,,,,,,,0,0,0,0,,,,,,,,,,,,,,,,,,,,,,,,,,,,,,,,,,,,,,,,,0,19,19,24,,,,,166.38107716699596,,,,,,,,,,,,,168.07440862501971,j,1,168.48751741700107,None,,,,,,,,,,,,,,,,,,,,,,,1,,,,2024-06-18_12h23.11.127,SceneCat_2023_2_key_resp,2024.1.1,None,2024-06-18 12h23.58.114316 +0200,
stimuli/img_2pk6v.png,j,,0,0,0,0,0,1,1,categorization,1,2,10,345,bedrooms,bedrooms,target,None,85.08108108108108,66.16216216216216,75.62162162162161,37,9,9,9,9,9,8,,,,,,,,,0,0,0,0,,,,,,,,,,,,,,,,,,,,,,,,,,,,,,,,,,,,,,,,,0,20,20,9,,,,,168.50535454199417,,,,,,,,,,,,,169.90144874999532,j,1,None,None,,,,,,,,,,,,,,,,,,,,,,,1,,,,2024-06-18_12h23.11.127,SceneCat_2023_2_key_resp,2024.1.1,None,2024-06-18 12h23.58.114316 +0200,
stimuli/img_xy930.png,f,,0,0,0,0,0,1,1,categorization,1,2,20,355,bedrooms,living_rooms,distractor,None,70.5952380952381,49.47619047619047,60.03571428571429,42,6,6,6,5,5,5,,,,,,,,,0,0,0,0,,,,,,,,,,,,,,,,,,,,,,,,,,,,,,,,,,,,,,,,,0,21,21,19,,,,,170.40349337499356,,,,,,,,,,,,,171.71920379198855,j,0,172.43123616703087,None,,,,,,,,,,,,,,,,,,,,,,,1,,,,2024-06-18_12h23.11.127,SceneCat_2023_2_key_resp,2024.1.1,None,2024-06-18 12h23.58.114316 +0200,
stimuli/img_gbypq.png,j,,0,0,0,0,0,1,1,categorization,1,2,6,341,bedrooms,bedrooms,target,None,76.275,51.925,64.1,40,6,6,6,6,6,6,,,,,,,,,0,0,0,0,,,,,,,,,,,,,,,,,,,,,,,,,,,,,,,,,,,,,,,,,0,22,22,5,,,,,172.46167804201832,,,,,,,,,,,,,173.83500650001224,j,1,174.4204490419943,None,,,,,,,,,,,,,,,,,,,,,,,1,,,,2024-06-18_12h23.11.127,SceneCat_2023_2_key_resp,2024.1.1,None,2024-06-18 12h23.58.114316 +0200,
stimuli/img_9pfbj.png,j,,0,0,0,0,0,1,1,categorization,1,2,18,353,bedrooms,bedrooms,target,None,91.27272727272727,80.0909090909091,85.68181818181819,33,10,10,10,10,10,10,,,,,,,,,0,0,0,0,,,,,,,,,,,,,,,,,,,,,,,,,,,,,,,,,,,,,,,,,0,23,23,17,,,,,174.43744770798367,,,,,,,,,,,,,176.1235784580349,j,1,176.34721362503478,None,,,,,,,,,,,,,,,,,,,,,,,1,,,,2024-06-18_12h23.11.127,SceneCat_2023_2_key_resp,2024.1.1,None,2024-06-18 12h23.58.114316 +0200,
stimuli/img_aweye.png,j,,0,0,0,0,0,1,1,categorization,1,2,7,342,bedrooms,bedrooms,target,None,53.42105263157895,31.84210526315789,42.63157894736842,38,2,2,2,3,3,2,,,,,,,,,0,0,0,0,,,,,,,,,,,,,,,,,,,,,,,,,,,,,,,,,,,,,,,,,0,24,24,6,,,,,176.45332454203162,,,,,,,,,,,,,177.53953437501332,j,1,178.49712150002597,None,178.28481250000186,,,,,,,,,,,,,,,,,,,,,,1,,,,2024-06-18_12h23.11.127,SceneCat_2023_2_key_resp,2024.1.1,None,2024-06-18 12h23.58.114316 +0200,
stimuli/img_yteqw.png,j,,0,0,0,0,0,1,1,categorization,1,2,19,354,bedrooms,bedrooms,target,None,66.83783783783784,43.78378378378378,55.31081081081081,37,4,4,4,5,4,4,,,,,,,,,0,0,0,0,,,,,,,,,,,,,,,,,,,,,,,,,,,,,,,,,,,,,,,,,0,25,25,18,,,,,178.51238391699735,,,,,,,,,,,,,180.18499741703272,j,1,None,None,,,,,,,,,,,,,,,,,,,,,,,1,,,,2024-06-18_12h23.11.127,SceneCat_2023_2_key_resp,2024.1.1,None,2024-06-18 12h23.58.114316 +0200,
stimuli/img_anzgh.png,j,,0,0,0,0,0,1,1,memory,1,2,1,362,bedrooms,bedrooms,target,old,75.10526315789474,55.76315789473684,65.4342105263158,38,6,6,6,6,6,6,,,,,,,,,0,0,0,0,,,,,,,,,,,,,,,,,,,,,,,,,,,,,,,,,,,,,,,,,,,,,0,0,0,0,180.66207087499788,,,,,,,,,,,,,,,,,,,j,188.10513216699474,None,,,,,,,,,,,,,,,,,,,1,,,,2024-06-18_12h23.11.127,SceneCat_2023_2_key_resp,2024.1.1,None,2024-06-18 12h23.58.114316 +0200,
stimuli/img_ose78.png,j,,0,0,0,0,0,1,1,memory,1,2,2,363,bedrooms,bedrooms,target,old,80.19444444444444,60.25,70.22222222222223,36,8,7,7,7,7,7,,,,,,,,,0,0,0,0,,,,,,,,,,,,,,,,,,,,,,,,,,,,,,,,,,,,,,,,,,,,,0,1,1,1,188.12871474999702,,,,,,,,,,,,,,,,,,,j,190.26271550002275,None,,,,,,,,,,,,,,,,,,,1,,,,2024-06-18_12h23.11.127,SceneCat_2023_2_key_resp,2024.1.1,None,2024-06-18 12h23.58.114316 +0200,
stimuli/img_t4hvr.png,j,,0,0,0,0,0,1,1,memory,1,2,3,364,bedrooms,bedrooms,target,old,61.69230769230769,39.76923076923077,50.73076923076923,39,3,3,3,4,3,4,,,,,,,,,0,0,0,0,,,,,,,,,,,,,,,,,,,,,,,,,,,,,,,,,,,,,,,,,,,,,0,2,2,2,190.28663170803338,,,,,,,,,,,,,,,,,,,j,191.6856054579839,None,,,,,,,,,,,,,,,,,,,1,,,,2024-06-18_12h23.11.127,SceneCat_2023_2_key_resp,2024.1.1,None,2024-06-18 12h23.58.114316 +0200,
stimuli/img_qbdgm.png,f,,0,0,0,0,0,1,1,memory,1,2,4,365,bedrooms,bedrooms,None,new,76.88095238095238,60.40476190476191,68.64285714285714,42,7,7,7,7,7,7,,,,,,,,,0,0,0,0,,,,,,,,,,,,,,,,,,,,,,,,,,,,,,,,,,,,,,,,,,,,,0,3,3,3,191.70016741700238,,,,,,,,,,,,,,,,,,,j,193.71543099998962,None,,,,,,,,,,,,,,,,,,,1,,,,2024-06-18_12h23.11.127,SceneCat_2023_2_key_resp,2024.1.1,None,2024-06-18 12h23.58.114316 +0200,
stimuli/img_sfh4b.png,f,,0,0,0,0,0,1,1,memory,1,2,5,366,bedrooms,bedrooms,None,new,69.06521739130434,49.54347826086956,59.30434782608695,46,5,5,5,5,5,5,,,,,,,,,0,0,0,0,,,,,,,,,,,,,,,,,,,,,,,,,,,,,,,,,,,,,,,,,,,,,0,4,4,4,193.7283734169905,,,,,,,,,,,,,,,,,,,j,195.511248625,None,,,,,,,,,,,,,,,,,,,1,,,,2024-06-18_12h23.11.127,SceneCat_2023_2_key_resp,2024.1.1,None,2024-06-18 12h23.58.114316 +0200,
stimuli/img_2pnl2.png,j,,0,0,0,0,0,1,1,memory,1,2,6,367,bedrooms,bedrooms,target,old,6.621621621621622,7.135135135135135,6.878378378378379,37,1,1,1,1,1,1,,,,,,,,,0,0,0,0,,,,,,,,,,,,,,,,,,,,,,,,,,,,,,,,,,,,,,,,,,,,,0,5,5,5,195.56691566703375,,,,,,,,,,,,,,,,,,,j,197.33667433302617,None,,,,,,,,,,,,,,,,,,,1,,,,2024-06-18_12h23.11.127,SceneCat_2023_2_key_resp,2024.1.1,None,2024-06-18 12h23.58.114316 +0200,
stimuli/img_i7vab.png,f,,0,0,0,0,0,1,1,memory,1,2,7,368,bedrooms,bedrooms,None,new,86.4,67.8,77.1,35,9,9,9,9,9,9,,,,,,,,,0,0,0,0,,,,,,,,,,,,,,,,,,,,,,,,,,,,,,,,,,,,,,,,,,,,,0,6,6,6,197.4622008749866,,,,,,,,,,,,,,,,,,,k,199.98150500003248,None,,,,,,,,,,,,,,,,,,,1,,,,2024-06-18_12h23.11.127,SceneCat_2023_2_key_resp,2024.1.1,None,2024-06-18 12h23.58.114316 +0200,
stimuli/img_jge7p.png,f,,0,0,0,0,0,1,1,memory,1,2,8,369,bedrooms,bedrooms,None,new,90.42424242424242,75.63636363636364,83.03030303030303,33,10,10,10,10,10,10,,,,,,,,,0,0,0,0,,,,,,,,,,,,,,,,,,,,,,,,,,,,,,,,,,,,,,,,,,,,,0,7,7,7,199.9952802080079,,,,,,,,,,,,,,,,,,,j,201.8095806670026,None,,,,,,,,,,,,,,,,,,,1,,,,2024-06-18_12h23.11.127,SceneCat_2023_2_key_resp,2024.1.1,None,2024-06-18 12h23.58.114316 +0200,
stimuli/img_jivhq.png,j,,0,0,0,0,0,1,1,memory,1,2,9,370,bedrooms,bedrooms,target,old,37,22.26530612244898,29.63265306122449,49,2,2,2,2,2,2,,,,,,,,,0,0,0,0,,,,,,,,,,,,,,,,,,,,,,,,,,,,,,,,,,,,,,,,,,,,,0,8,8,8,201.8291424580384,,,,,,,,,,,,,,,,,,,j,203.5915791669977,None,,,,,,,,,,,,,,,,,,,1,,,,2024-06-18_12h23.11.127,SceneCat_2023_2_key_resp,2024.1.1,None,2024-06-18 12h23.58.114316 +0200,
stimuli/img_9pfbj.png,j,,0,0,0,0,0,1,1,memory,1,2,10,371,bedrooms,bedrooms,target,old,91.27272727272727,80.0909090909091,85.68181818181819,33,10,10,10,10,10,10,,,,,,,,,0,0,0,0,,,,,,,,,,,,,,,,,,,,,,,,,,,,,,,,,,,,,,,,,,,,,0,9,9,9,203.60662583302474,,,,,,,,,,,,,,,,,,,j,205.63153808302013,None,,,,,,,,,,,,,,,,,,,1,,,,2024-06-18_12h23.11.127,SceneCat_2023_2_key_resp,2024.1.1,None,2024-06-18 12h23.58.114316 +0200,
stimuli/img_9z99v.png,f,,0,0,0,0,0,1,1,memory,1,2,11,372,bedrooms,bedrooms,None,new,81.15625,64.78125,72.96875,32,8,8,8,8,8,8,,,,,,,,,0,0,0,0,,,,,,,,,,,,,,,,,,,,,,,,,,,,,,,,,,,,,,,,,,,,,0,10,10,10,205.65042925003218,,,,,,,,,,,,,,,,,,,j,207.17551987501793,None,,,,,,,,,,,,,,,,,,,1,,,,2024-06-18_12h23.11.127,SceneCat_2023_2_key_resp,2024.1.1,None,2024-06-18 12h23.58.114316 +0200,
stimuli/img_2pk6v.png,j,,0,0,0,0,0,1,1,memory,1,2,12,373,bedrooms,bedrooms,target,old,85.08108108108108,66.16216216216216,75.62162162162161,37,9,9,9,9,9,8,,,,,,,,,0,0,0,0,,,,,,,,,,,,,,,,,,,,,,,,,,,,,,,,,,,,,,,,,,,,,0,11,11,11,207.1961695420323,,,,,,,,,,,,,,,,,,,j,209.08892241702415,None,,,,,,,,,,,,,,,,,,,1,,,,2024-06-18_12h23.11.127,SceneCat_2023_2_key_resp,2024.1.1,None,2024-06-18 12h23.58.114316 +0200,
stimuli/img_5p2ql.png,j,,0,0,0,0,0,1,1,memory,1,2,13,374,bedrooms,bedrooms,target,old,89.19565217391305,72.52173913043478,80.8586956521739,46,10,10,10,10,10,9,,,,,,,,,0,0,0,0,,,,,,,,,,,,,,,,,,,,,,,,,,,,,,,,,,,,,,,,,,,,,0,12,12,12,209.10222170798806,,,,,,,,,,,,,,,,,,,j,210.9981890420313,None,,,,,,,,,,,,,,,,,,,1,,,,2024-06-18_12h23.11.127,SceneCat_2023_2_key_resp,2024.1.1,None,2024-06-18 12h23.58.114316 +0200,
stimuli/img_yteqw.png,j,,0,0,0,0,0,1,1,memory,1,2,14,375,bedrooms,bedrooms,target,old,66.83783783783784,43.78378378378378,55.31081081081081,37,4,4,4,5,4,4,,,,,,,,,0,0,0,0,,,,,,,,,,,,,,,,,,,,,,,,,,,,,,,,,,,,,,,,,,,,,0,13,13,13,211.0129214170156,,,,,,,,,,,,,,,,,,,j,212.58950875001028,None,,,,,,,,,,,,,,,,,,,1,,,,2024-06-18_12h23.11.127,SceneCat_2023_2_key_resp,2024.1.1,None,2024-06-18 12h23.58.114316 +0200,
stimuli/img_sltwe.png,f,,0,0,0,0,0,1,1,memory,1,2,15,376,bedrooms,bedrooms,None,new,72.025,46.875,59.45,40,5,5,5,5,5,5,,,,,,,,,0,0,0,0,,,,,,,,,,,,,,,,,,,,,,,,,,,,,,,,,,,,,,,,,,,,,0,14,14,14,212.61300829198444,,,,,,,,,,,,,,,,,,,j,213.91526112501742,None,,,,,,,,,,,,,,,,,,,1,,,,2024-06-18_12h23.11.127,SceneCat_2023_2_key_resp,2024.1.1,None,2024-06-18 12h23.58.114316 +0200,
stimuli/img_zv0dq.png,f,,0,0,0,0,0,1,1,memory,1,2,16,377,bedrooms,bedrooms,None,new,76.86842105263158,52.71052631578947,64.78947368421052,38,6,6,6,6,6,6,,,,,,,,,0,0,0,0,,,,,,,,,,,,,,,,,,,,,,,,,,,,,,,,,,,,,,,,,,,,,0,15,15,15,214.0644405420171,,,,,,,,,,,,,,,,,,,j,215.17135850002524,None,,,,,,,,,,,,,,,,,,,1,,,,2024-06-18_12h23.11.127,SceneCat_2023_2_key_resp,2024.1.1,None,2024-06-18 12h23.58.114316 +0200,
stimuli/img_3bxjb.png,j,,0,0,0,0,0,1,1,memory,1,2,17,378,bedrooms,bedrooms,target,old,87.28571428571429,72.65714285714286,79.97142857142858,35,10,10,10,9,9,10,,,,,,,,,0,0,0,0,,,,,,,,,,,,,,,,,,,,,,,,,,,,,,,,,,,,,,,,,,,,,0,16,16,16,215.20611962501425,,,,,,,,,,,,,,,,,,,j,216.68189008301124,None,,,,,,,,,,,,,,,,,,,1,,,,2024-06-18_12h23.11.127,SceneCat_2023_2_key_resp,2024.1.1,None,2024-06-18 12h23.58.114316 +0200,
stimuli/img_6ddrx.png,f,,0,0,0,0,0,1,1,memory,1,2,18,379,bedrooms,bedrooms,None,new,82.2,63.68571428571428,72.94285714285715,35,8,8,8,8,8,8,,,,,,,,,0,0,0,0,,,,,,,,,,,,,,,,,,,,,,,,,,,,,,,,,,,,,,,,,,,,,0,17,17,17,216.9635994170094,,,,,,,,,,,,,,,,,,,j,217.78580479201628,None,,,,,,,,,,,,,,,,,,,1,,,,2024-06-18_12h23.11.127,SceneCat_2023_2_key_resp,2024.1.1,None,2024-06-18 12h23.58.114316 +0200,
stimuli/catch_04_supermarket.jpg,f,,0,0,0,0,0,1,1,memory,1,2,19,380,bedrooms,None,None,catch,None,None,None,None,None,None,None,None,None,None,,,,,,,,,0,0,0,0,,,,,,,,,,,,,,,,,,,,,,,,,,,,,,,,,,,,,,,,,,,,,0,18,18,18,218.0701269999845,,,,,,,,,,,,,,,,,,,j,218.39925204199972,None,,,,,,,,,,,,,,,,,,,1,,,,2024-06-18_12h23.11.127,SceneCat_2023_2_key_resp,2024.1.1,None,2024-06-18 12h23.58.114316 +0200,
stimuli/img_bntrh.png,f,,0,0,0,0,0,1,1,memory,1,2,20,381,bedrooms,bedrooms,None,new,76.07894736842105,53.36842105263158,64.72368421052632,38,6,6,6,6,6,6,,,,,,,,,0,0,0,0,,,,,,,,,,,,,,,,,,,,,,,,,,,,,,,,,,,,,,,,,,,,,0,19,19,19,219.33643266698346,,,,,,,,,,,,,,,,,,,j,219.73301249998622,None,,,,,,,,,,,,,,,,,,,1,,,,2024-06-18_12h23.11.127,SceneCat_2023_2_key_resp,2024.1.1,None,2024-06-18 12h23.58.114316 +0200,
stimuli/img_gbypq.png,j,,0,0,0,0,0,1,1,memory,1,2,21,382,bedrooms,bedrooms,target,old,76.275,51.925,64.1,40,6,6,6,6,6,6,,,,,,,,,0,0,0,0,,,,,,,,,,,,,,,,,,,,,,,,,,,,,,,,,,,,,,,,,,,,,0,20,20,20,221.19797483301954,,,,,,,,,,,,,,,,,,,j,221.71590308303712,None,,,,,,,,,,,,,,,,,,,1,,,,2024-06-18_12h23.11.127,SceneCat_2023_2_key_resp,2024.1.1,None,2024-06-18 12h23.58.114316 +0200,
stimuli/img_z3yzz.png,j,,0,0,0,0,0,1,1,memory,1,2,22,383,bedrooms,bedrooms,target,old,71.71052631578948,49.81578947368421,60.76315789473685,38,5,5,5,5,5,5,,,,,,,,,0,0,0,0,,,,,,,,,,,,,,,,,,,,,,,,,,,,,,,,,,,,,,,,,,,,,0,21,21,21,222.89713895804016,,,,,,,,,,,,,,,,,,,j,223.50472108303802,None,,,,,,,,,,,,,,,,,,,1,,,,2024-06-18_12h23.11.127,SceneCat_2023_2_key_resp,2024.1.1,None,2024-06-18 12h23.58.114316 +0200,
stimuli/img_65cdi.png,f,,0,0,0,0,0,1,1,memory,1,2,23,384,bedrooms,bedrooms,None,new,46.92307692307692,27,36.96153846153846,39,2,2,2,2,2,2,,,,,,,,,0,0,0,0,,,,,,,,,,,,,,,,,,,,,,,,,,,,,,,,,,,,,,,,,,,,,0,22,22,22,224.7218615830061,,,,,,,,,,,,,,,,,,,j,225.10906866699224,None,,,,,,,,,,,,,,,,,,,1,,,,2024-06-18_12h23.11.127,SceneCat_2023_2_key_resp,2024.1.1,None,2024-06-18 12h23.58.114316 +0200,
stimuli/img_ic3os.png,j,,0,0,0,0,0,1,1,memory,1,2,24,385,bedrooms,bedrooms,target,old,84.79069767441861,66.16279069767442,75.47674418604652,43,9,9,9,8,9,9,,,,,,,,,0,0,0,0,,,,,,,,,,,,,,,,,,,,,,,,,,,,,,,,,,,,,,,,,,,,,0,23,23,23,226.58076695800992,,,,,,,,,,,,,,,,,,,j,228.77294695802266,None,,,,,,,,,,,,,,,,,,,1,,,,2024-06-18_12h23.11.127,SceneCat_2023_2_key_resp,2024.1.1,None,2024-06-18 12h23.58.114316 +0200,
stimuli/img_bklr1.png,f,,0,0,0,0,0,1,1,memory,1,2,25,386,bedrooms,bedrooms,None,new,86.54761904761905,67.73809523809524,77.14285714285714,42,9,9,9,9,9,9,,,,,,,,,0,0,0,0,,,,,,,,,,,,,,,,,,,,,,,,,,,,,,,,,,,,,,,,,,,,,0,24,24,24,228.7854948330205,,,,,,,,,,,,,,,,,,,j,230.8737506250036,None,,,,,,,,,,,,,,,,,,,1,,,,2024-06-18_12h23.11.127,SceneCat_2023_2_key_resp,2024.1.1,None,2024-06-18 12h23.58.114316 +0200,
stimuli/img_o37la.png,f,,0,0,0,0,0,1,1,memory,1,2,26,387,bedrooms,bedrooms,None,new,65.24324324324324,42.78378378378378,54.01351351351352,37,4,4,4,4,4,4,,,,,,,,,0,0,0,0,,,,,,,,,,,,,,,,,,,,,,,,,,,,,,,,,,,,,,,,,,,,,0,25,25,25,230.890173916996,,,,,,,,,,,,,,,,,,,j,233.15440866700374,None,,,,,,,,,,,,,,,,,,,1,,,,2024-06-18_12h23.11.127,SceneCat_2023_2_key_resp,2024.1.1,None,2024-06-18 12h23.58.114316 +0200,
stimuli/img_cgdyc.png,j,,0,0,0,0,0,1,1,memory,1,2,27,388,bedrooms,bedrooms,target,old,32.93023255813954,14.04651162790698,23.48837209302326,43,1,1,1,1,1,1,,,,,,,,,0,0,0,0,,,,,,,,,,,,,,,,,,,,,,,,,,,,,,,,,,,,,,,,,,,,,0,26,26,26,233.1682657499914,,,,,,,,,,,,,,,,,,,j,235.10134237504099,None,,,,,,,,,,,,,,,,,,,1,,,,2024-06-18_12h23.11.127,SceneCat_2023_2_key_resp,2024.1.1,None,2024-06-18 12h23.58.114316 +0200,
stimuli/img_badai.png,f,,0,0,0,0,0,1,1,memory,1,2,28,389,bedrooms,bedrooms,None,new,63.97435897435897,43.38461538461539,53.67948717948718,39,4,4,4,4,4,4,,,,,,,,,0,0,0,0,,,,,,,,,,,,,,,,,,,,,,,,,,,,,,,,,,,,,,,,,,,,,0,27,27,27,235.11362737498712,,,,,,,,,,,,,,,,,,,j,236.75012145802611,None,,,,,,,,,,,,,,,,,,,1,,,,2024-06-18_12h23.11.127,SceneCat_2023_2_key_resp,2024.1.1,None,2024-06-18 12h23.58.114316 +0200,
stimuli/img_l1h36.png,f,,0,0,0,0,0,1,1,memory,1,2,29,390,bedrooms,bedrooms,None,new,26.64285714285714,9.142857142857142,17.89285714285714,42,1,1,1,1,1,1,,,,,,,,,0,0,0,0,,,,,,,,,,,,,,,,,,,,,,,,,,,,,,,,,,,,,,,,,,,,,0,28,28,28,236.7641483329935,,,,,,,,,,,,,,,,,,,j,238.7825617500348,None,,,,,,,,,,,,,,,,,,,1,,,,2024-06-18_12h23.11.127,SceneCat_2023_2_key_resp,2024.1.1,None,2024-06-18 12h23.58.114316 +0200,
stimuli/img_kzg3h.png,j,,0,0,0,0,0,1,1,memory,1,2,30,391,bedrooms,bedrooms,target,old,77.02777777777777,56.22222222222222,66.625,36,7,7,7,7,7,7,,,,,,,,,0,0,0,0,,,,,,,,,,,,,,,,,,,,,,,,,,,,,,,,,,,,,,,,,,,,,0,29,29,29,238.8023157499847,,,,,,,,,,,,,,,,,,,j,240.33313079201616,None,,,,,,,,,,,,,,,,,,,1,,,,2024-06-18_12h23.11.127,SceneCat_2023_2_key_resp,2024.1.1,None,2024-06-18 12h23.58.114316 +0200,
stimuli/img_ri0yx.png,f,,0,0,0,0,0,1,1,memory,1,2,31,392,bedrooms,bedrooms,None,new,88.96969696969697,77.15151515151516,83.06060606060606,33,10,10,10,10,10,10,,,,,,,,,0,0,0,0,,,,,,,,,,,,,,,,,,,,,,,,,,,,,,,,,,,,,,,,,,,,,0,30,30,30,240.35194354201667,,,,,,,,,,,,,,,,,,,j,241.87588725000387,None,,,,,,,,,,,,,,,,,,,1,,,,2024-06-18_12h23.11.127,SceneCat_2023_2_key_resp,2024.1.1,None,2024-06-18 12h23.58.114316 +0200,
stimuli/img_v8dra.png,j,,0,0,0,0,0,1,1,memory,1,2,32,393,bedrooms,bedrooms,target,old,61.77272727272727,38.79545454545455,50.28409090909091,44,3,3,3,3,4,3,,,,,,,,,0,0,0,0,,,,,,,,,,,,,,,,,,,,,,,,,,,,,,,,,,,,,,,,,,,,,0,31,31,31,241.8916407499928,,,,,,,,,,,,,,,,,,,j,243.42933308304055,None,,,,,,,,,,,,,,,,,,,1,,,,2024-06-18_12h23.11.127,SceneCat_2023_2_key_resp,2024.1.1,None,2024-06-18 12h23.58.114316 +0200,
stimuli/img_kn0we.png,f,,0,0,0,0,0,1,1,memory,1,2,33,394,bedrooms,bedrooms,None,new,80.1590909090909,56.68181818181818,68.42045454545455,44,7,7,7,7,7,7,,,,,,,,,0,0,0,0,,,,,,,,,,,,,,,,,,,,,,,,,,,,,,,,,,,,,,,,,,,,,0,32,32,32,243.44097562500974,,,,,,,,,,,,,,,,,,,j,244.94137850002153,None,,,,,,,,,,,,,,,,,,,1,,,,2024-06-18_12h23.11.127,SceneCat_2023_2_key_resp,2024.1.1,None,2024-06-18 12h23.58.114316 +0200,
stimuli/img_fbihy.png,f,,0,0,0,0,0,1,1,memory,1,2,34,395,bedrooms,bedrooms,None,new,44.39024390243902,26.90243902439024,35.64634146341464,41,2,2,2,2,2,2,,,,,,,,,0,0,0,0,,,,,,,,,,,,,,,,,,,,,,,,,,,,,,,,,,,,,,,,,,,,,0,33,33,33,244.96425175003242,,,,,,,,,,,,,,,,,,,j,246.5895436250139,None,,,,,,,,,,,,,,,,,,,1,,,,2024-06-18_12h23.11.127,SceneCat_2023_2_key_resp,2024.1.1,None,2024-06-18 12h23.58.114316 +0200,
stimuli/img_bj2gr.png,j,,0,0,0,0,0,1,1,memory,1,2,35,396,bedrooms,bedrooms,target,old,65.25,44.8,55.025,40,4,4,4,4,4,4,,,,,,,,,0,0,0,0,,,,,,,,,,,,,,,,,,,,,,,,,,,,,,,,,,,,,,,,,,,,,0,34,34,34,246.61434279201785,,,,,,,,,,,,,,,,,,,j,248.32778583304025,None,,,,,,,,,,,,,,,,,,,1,,,,2024-06-18_12h23.11.127,SceneCat_2023_2_key_resp,2024.1.1,None,2024-06-18 12h23.58.114316 +0200,
stimuli/img_fqgem.png,j,,0,0,0,0,0,1,1,memory,1,2,36,397,bedrooms,bedrooms,target,old,80.75,61.475,71.1125,40,8,8,8,8,8,8,,,,,,,,,0,0,0,0,,,,,,,,,,,,,,,,,,,,,,,,,,,,,,,,,,,,,,,,,,,,,0,35,35,35,248.3485706250067,,,,,,,,,,,,,,,,,,,j,250.26998695801012,None,,,,,,,,,,,,,,,,,,,1,,,,2024-06-18_12h23.11.127,SceneCat_2023_2_key_resp,2024.1.1,None,2024-06-18 12h23.58.114316 +0200,
stimuli/img_okvvw.png,j,,0,0,0,0,0,1,1,memory,1,2,37,398,bedrooms,bedrooms,target,old,50.58333333333334,32.11111111111111,41.34722222222223,36,2,2,2,2,2,3,,,,,,,,,0,0,0,0,,,,,,,,,,,,,,,,,,,,,,,,,,,,,,,,,,,,,,,,,,,,,0,36,36,36,250.29784166702302,,,,,,,,,,,,,,,,,,,j,251.86619391699787,None,,,,,,,,,,,,,,,,,,,1,,,,2024-06-18_12h23.11.127,SceneCat_2023_2_key_resp,2024.1.1,None,2024-06-18 12h23.58.114316 +0200,
stimuli/img_dmjh8.png,f,,0,0,0,0,0,1,1,memory,1,2,38,399,bedrooms,bedrooms,None,new,57.48648648648648,37.64864864864865,47.56756756756756,37,3,3,3,3,3,3,,,,,,,,,0,0,0,0,,,,,,,,,,,,,,,,,,,,,,,,,,,,,,,,,,,,,,,,,,,,,0,37,37,37,251.88664416701067,,,,,,,,,,,,,,,,,,,j,253.41327487502713,None,,,,,,,,,,,,,,,,,,,1,,,,2024-06-18_12h23.11.127,SceneCat_2023_2_key_resp,2024.1.1,None,2024-06-18 12h23.58.114316 +0200,
stimuli/img_7os7q.png,f,,0,0,0,0,0,1,1,memory,1,2,39,400,bedrooms,bedrooms,None,new,59.7027027027027,34.94594594594594,47.32432432432432,37,3,3,3,3,3,3,,,,,,,,,0,0,0,0,,,,,,,,,,,,,,,,,,,,,,,,,,,,,,,,,,,,,,,,,,,,,0,38,38,38,253.43125570804114,,,,,,,,,,,,,,,,,,,j,255.15093175001675,None,,,,,,,,,,,,,,,,,,,1,,,,2024-06-18_12h23.11.127,SceneCat_2023_2_key_resp,2024.1.1,None,2024-06-18 12h23.58.114316 +0200,
stimuli/img_aweye.png,j,,0,0,0,0,0,1,1,memory,1,2,40,401,bedrooms,bedrooms,target,old,53.42105263157895,31.84210526315789,42.63157894736842,38,2,2,2,3,3,2,,,,,,,,,0,0,0,0,,,,,,,,,,,,,,,,,,,,,,,,,,,,,,,,,,,,,,,,,,,,,0,39,39,39,255.17427912499988,,,,,,,,,,,,,,,,,,,j,256.7691663330188,None,,,,,,,,,,,,,,,,,,,1,,,,2024-06-18_12h23.11.127,SceneCat_2023_2_key_resp,2024.1.1,None,2024-06-18 12h23.58.114316 +0200,
stimuli/img_c2pbs.png,f,,0,0,0,0,0,1,1,memory,1,2,41,402,bedrooms,bedrooms,None,new,21.95238095238095,14.47619047619048,18.21428571428572,42,1,1,1,1,1,1,,,,,,,,,0,0,0,0,,,,,,,,,,,,,,,,,,,,,,,,,,,,,,,,,,,,,,,,,,,,,0,40,40,40,256.78812962502707,,,,,,,,,,,,,,,,,,,j,258.3532272920129,None,,,,,,,,,,,,,,,,,,,1,,,,2024-06-18_12h23.11.127,SceneCat_2023_2_key_resp,2024.1.1,None,2024-06-18 12h23.58.114316 +0200,
,,,0,0,0,0,0,1,,,,,,,,,,,,,,,,,,,,,,,,,,,,,0,0,0,0,,,,,,,,,,,,,,,,,,,,,,,,,,,,,,,,,,,,,,,,,,,,,,,,,,,,,,,,,,,,,,,,,,,,,,,,,,,,,,,,,,,,,,,,,1,,,,2024-06-18_12h23.11.127,SceneCat_2023_2_key_resp,2024.1.1,None,2024-06-18 12h23.58.114316 +0200,
stimuli/img_hc49v.png,f,,0,0,0,1,0,0,1,categorization,2,2,1,202,kitchens,living_rooms,distractor,None,70.95121951219512,53.31707317073171,62.13414634146342,41,6,6,6,6,6,6,,,,,,,,,0,1,1,1,,,,,,,,,0,0,0,0,,,,,,,,,,,,,,,,,,,,,,,,,,,,,,,,,,,,,260.31739287503297,,,,,,,,,,,,,,,,,,,,,,263.03945750003913,j,0,263.3467943330179,None,,,,,,,,,,,,,,1,,,,2024-06-18_12h23.11.127,SceneCat_2023_2_key_resp,2024.1.1,None,2024-06-18 12h23.58.114316 +0200,
stimuli/img_ncr40.png,j,,0,0,0,1,0,0,1,categorization,2,2,2,203,kitchens,kitchens,target,None,75.66666666666667,54.27272727272727,64.96969696969697,33,6,6,6,6,6,6,,,,,,,,,0,1,1,1,,,,,,,,,0,1,1,1,,,,,,,,,,,,,,,,,,,,,,,,,,,,,,,,,,,,,263.3684788750252,,,,,,,,,,,,,,,,,,,,,,264.9539548330358,j,1,265.25842908298364,None,,,,,,,,,,,,,,1,,,,2024-06-18_12h23.11.127,SceneCat_2023_2_key_resp,2024.1.1,None,2024-06-18 12h23.58.114316 +0200,
stimuli/img_mqnl6.png,f,,0,0,0,1,0,0,1,categorization,2,2,3,204,kitchens,bedrooms,distractor,None,70.7560975609756,45.68292682926829,58.21951219512195,41,5,5,5,5,5,5,,,,,,,,,0,1,1,1,,,,,,,,,0,2,2,2,,,,,,,,,,,,,,,,,,,,,,,,,,,,,,,,,,,,,265.29866041702917,,,,,,,,,,,,,,,,,,,,,,267.174610749993,j,0,267.43519287504023,None,,,,,,,,,,,,,,1,,,,2024-06-18_12h23.11.127,SceneCat_2023_2_key_resp,2024.1.1,None,2024-06-18 12h23.58.114316 +0200,
stimuli/img_84s7n.png,j,,0,0,0,1,0,0,1,categorization,2,2,4,205,kitchens,kitchens,target,None,11.03125,2.90625,6.96875,32,1,1,1,1,1,1,,,,,,,,,0,1,1,1,,,,,,,,,0,3,3,3,,,,,,,,,,,,,,,,,,,,,,,,,,,,,,,,,,,,,267.49909908301197,,,,,,,,,,,,,,,,,,,,,,268.55539566703374,j,1,268.8782528330339,None,,,,,,,,,,,,,,1,,,,2024-06-18_12h23.11.127,SceneCat_2023_2_key_resp,2024.1.1,None,2024-06-18 12h23.58.114316 +0200,
stimuli/img_411xa.png,j,,0,0,0,1,0,0,1,categorization,2,2,5,206,kitchens,kitchens,target,None,51.03030303030303,28.93939393939394,39.98484848484848,33,2,2,2,2,2,2,,,,,,,,,0,1,1,1,,,,,,,,,0,4,4,4,,,,,,,,,,,,,,,,,,,,,,,,,,,,,,,,,,,,,268.8933067920152,,,,,,,,,,,,,,,,,,,,,,270.25462079199497,j,1,270.5167041250388,None,,,,,,,,,,,,,,1,,,,2024-06-18_12h23.11.127,SceneCat_2023_2_key_resp,2024.1.1,None,2024-06-18 12h23.58.114316 +0200,
stimuli/img_xesl0.png,j,,0,0,0,1,0,0,1,categorization,2,2,6,207,kitchens,kitchens,target,None,69.28571428571429,47.35714285714285,58.32142857142857,28,5,5,5,5,5,5,,,,,,,,,0,1,1,1,,,,,,,,,0,5,5,5,,,,,,,,,,,,,,,,,,,,,,,,,,,,,,,,,,,,,270.5816211249912,,,,,,,,,,,,,,,,,,,,,,271.59304629202234,j,1,271.7673894999898,None,,,,,,,,,,,,,,1,,,,2024-06-18_12h23.11.127,SceneCat_2023_2_key_resp,2024.1.1,None,2024-06-18 12h23.58.114316 +0200,
stimuli/img_5mw7y.png,f,,0,0,0,1,0,0,1,categorization,2,2,7,208,kitchens,living_rooms,distractor,None,72.6590909090909,50.86363636363637,61.76136363636364,44,6,6,6,6,6,6,,,,,,,,,0,1,1,1,,,,,,,,,0,6,6,6,,,,,,,,,,,,,,,,,,,,,,,,,,,,,,,,,,,,,271.92450154200196,,,,,,,,,,,,,,,,,,,,,,273.2909370420384,j,0,273.48783925001044,None,,,,,,,,,,,,,,1,,,,2024-06-18_12h23.11.127,SceneCat_2023_2_key_resp,2024.1.1,None,2024-06-18 12h23.58.114316 +0200,
stimuli/img_j5rpx.png,j,,0,0,0,1,0,0,1,categorization,2,2,8,209,kitchens,kitchens,target,None,72.24242424242425,50,61.12121212121212,33,5,5,5,5,5,5,,,,,,,,,0,1,1,1,,,,,,,,,0,7,7,7,,,,,,,,,,,,,,,,,,,,,,,,,,,,,,,,,,,,,273.6147837919998,,,,,,,,,,,,,,,,,,,,,,275.2722519169911,j,1,275.0292408330133,None,,,,,,,,,,,,,,1,,,,2024-06-18_12h23.11.127,SceneCat_2023_2_key_resp,2024.1.1,None,2024-06-18 12h23.58.114316 +0200,
stimuli/img_bwo9g.png,j,,0,0,0,1,0,0,1,categorization,2,2,9,210,kitchens,kitchens,target,None,64.81818181818181,42.36363636363637,53.59090909090909,33,4,4,4,4,4,4,,,,,,,,,0,1,1,1,,,,,,,,,0,8,8,8,,,,,,,,,,,,,,,,,,,,,,,,,,,,,,,,,,,,,275.5986487499904,,,,,,,,,,,,,,,,,,,,,,276.75516712502576,j,1,275.65495479200035,None,,,,,,,,,,,,,,1,,,,2024-06-18_12h23.11.127,SceneCat_2023_2_key_resp,2024.1.1,None,2024-06-18 12h23.58.114316 +0200,
stimuli/img_c0me7.png,j,,0,0,0,1,0,0,1,categorization,2,2,10,211,kitchens,kitchens,target,None,68.4,45.62857142857143,57.01428571428572,35,4,4,4,4,4,4,,,,,,,,,0,1,1,1,,,,,,,,,0,9,9,9,,,,,,,,,,,,,,,,,,,,,,,,,,,,,,,,,,,,,277.0909112080117,,,,,,,,,,,,,,,,,,,,,,279.09655454201857,j,1,277.1859756250051,None,,,,,,,,,,,,,,1,,,,2024-06-18_12h23.11.127,SceneCat_2023_2_key_resp,2024.1.1,None,2024-06-18 12h23.58.114316 +0200,
stimuli/img_b89t4.png,f,,0,0,0,1,0,0,1,categorization,2,2,11,212,kitchens,bedrooms,distractor,None,71.41463414634147,47.85365853658536,59.63414634146342,41,5,5,5,5,5,5,,,,,,,,,0,1,1,1,,,,,,,,,0,10,10,10,,,,,,,,,,,,,,,,,,,,,,,,,,,,,,,,,,,,,279.42446695803665,,,,,,,,,,,,,,,,,,,,,,280.64410279202275,j,0,281.02725633303635,None,,,,,,,,,,,,,,1,,,,2024-06-18_12h23.11.127,SceneCat_2023_2_key_resp,2024.1.1,None,2024-06-18 12h23.58.114316 +0200,
stimuli/img_s9are.png,j,,0,0,0,1,0,0,1,categorization,2,2,12,213,kitchens,kitchens,target,None,90.14285714285714,75.22857142857143,82.68571428571428,35,10,10,10,10,10,10,,,,,,,,,0,1,1,1,,,,,,,,,0,11,11,11,,,,,,,,,,,,,,,,,,,,,,,,,,,,,,,,,,,,,281.0432151670102,,,,,,,,,,,,,,,,,,,,,,283.04619433300104,j,1,283.5221588750137,None,,,,,,,,,,,,,,1,,,,2024-06-18_12h23.11.127,SceneCat_2023_2_key_resp,2024.1.1,None,2024-06-18 12h23.58.114316 +0200,
stimuli/img_a8wvq.png,j,,0,0,0,1,0,0,1,categorization,2,2,13,214,kitchens,kitchens,target,None,86.25925925925925,66.25925925925925,76.25925925925925,27,10,10,10,10,10,10,,,,,,,,,0,1,1,1,,,,,,,,,0,12,12,12,,,,,,,,,,,,,,,,,,,,,,,,,,,,,,,,,,,,,283.53325716702966,,,,,,,,,,,,,,,,,,,,,,284.788626958034,j,1,285.34230420802487,None,,,,,,,,,,,,,,1,,,,2024-06-18_12h23.11.127,SceneCat_2023_2_key_resp,2024.1.1,None,2024-06-18 12h23.58.114316 +0200,
stimuli/img_cv9qj.png,j,,0,0,0,1,0,0,1,categorization,2,2,14,215,kitchens,kitchens,target,None,60.34375,35.34375,47.84375,32,3,3,3,3,3,3,,,,,,,,,0,1,1,1,,,,,,,,,0,13,13,13,,,,,,,,,,,,,,,,,,,,,,,,,,,,,,,,,,,,,285.36018145800335,,,,,,,,,,,,,,,,,,,,,,287.1478070000303,j,1,286.5256551670027,None,,,,,,,,,,,,,,1,,,,2024-06-18_12h23.11.127,SceneCat_2023_2_key_resp,2024.1.1,None,2024-06-18 12h23.58.114316 +0200,
stimuli/img_uwv6y.png,j,,0,0,0,1,0,0,1,categorization,2,2,15,216,kitchens,kitchens,target,None,78.88888888888889,59.30555555555556,69.09722222222223,36,8,8,8,8,8,8,,,,,,,,,0,1,1,1,,,,,,,,,0,14,14,14,,,,,,,,,,,,,,,,,,,,,,,,,,,,,,,,,,,,,287.47493650001707,,,,,,,,,,,,,,,,,,,,,,289.0880338330171,j,1,288.269364583015,None,,,,,,,,,,,,,,1,,,,2024-06-18_12h23.11.127,SceneCat_2023_2_key_resp,2024.1.1,None,2024-06-18 12h23.58.114316 +0200,
stimuli/img_jz3kd.png,j,,0,0,0,1,0,0,1,categorization,2,2,16,217,kitchens,kitchens,target,None,72.79411764705883,51.64705882352941,62.22058823529412,34,6,6,6,6,6,6,,,,,,,,,0,1,1,1,,,,,,,,,0,15,15,15,,,,,,,,,,,,,,,,,,,,,,,,,,,,,,,,,,,,,289.4155297499965,,,,,,,,,,,,,,,,,,,,,,290.4551596670062,j,1,289.54345350002404,None,,,,,,,,,,,,,,1,,,,2024-06-18_12h23.11.127,SceneCat_2023_2_key_resp,2024.1.1,None,2024-06-18 12h23.58.114316 +0200,
stimuli/img_i2k07.png,j,,0,0,0,1,0,0,1,categorization,2,2,17,218,kitchens,kitchens,target,None,64.25925925925925,40.92592592592592,52.59259259259259,27,3,3,3,3,3,3,,,,,,,,,0,1,1,1,,,,,,,,,0,16,16,16,,,,,,,,,,,,,,,,,,,,,,,,,,,,,,,,,,,,,290.78251445799833,,,,,,,,,,,,,,,,,,,,,,292.0407300000079,j,1,290.9605483750347,None,,,,,,,,,,,,,,1,,,,2024-06-18_12h23.11.127,SceneCat_2023_2_key_resp,2024.1.1,None,2024-06-18 12h23.58.114316 +0200,
stimuli/img_xti0z.png,j,,0,0,0,1,0,0,1,categorization,2,2,18,219,kitchens,kitchens,target,None,81.40625,61.4375,71.421875,32,8,8,8,8,8,8,,,,,,,,,0,1,1,1,,,,,,,,,0,17,17,17,,,,,,,,,,,,,,,,,,,,,,,,,,,,,,,,,,,,,292.3659149170271,,,,,,,,,,,,,,,,,,,,,,293.89593695802614,j,1,292.8416595419985,None,,,,,,,,,,,,,,1,,,,2024-06-18_12h23.11.127,SceneCat_2023_2_key_resp,2024.1.1,None,2024-06-18 12h23.58.114316 +0200,
stimuli/img_71mhq.png,f,,0,0,0,1,0,0,1,categorization,2,2,19,220,kitchens,bedrooms,distractor,None,69.34210526315789,47.02631578947368,58.18421052631579,38,5,5,5,5,5,5,,,,,,,,,0,1,1,1,,,,,,,,,0,18,18,18,,,,,,,,,,,,,,,,,,,,,,,,,,,,,,,,,,,,,294.2256278329878,,,,,,,,,,,,,,,,,,,,,,295.30494687502505,j,0,295.6426925000269,None,,,,,,,,,,,,,,1,,,,2024-06-18_12h23.11.127,SceneCat_2023_2_key_resp,2024.1.1,None,2024-06-18 12h23.58.114316 +0200,
stimuli/img_lgxzn.png,f,,0,0,0,1,0,0,1,categorization,2,2,20,221,kitchens,living_rooms,distractor,None,73.11363636363636,49.97727272727273,61.54545454545455,44,6,6,6,6,6,5,,,,,,,,,0,1,1,1,,,,,,,,,0,19,19,19,,,,,,,,,,,,,,,,,,,,,,,,,,,,,,,,,,,,,295.65932366700144,,,,,,,,,,,,,,,,,,,,,,297.65645666699857,j,0,297.3301765419892,None,,,,,,,,,,,,,,1,,,,2024-06-18_12h23.11.127,SceneCat_2023_2_key_resp,2024.1.1,None,2024-06-18 12h23.58.114316 +0200,
stimuli/img_ua9bs.png,j,,0,0,0,1,0,0,1,categorization,2,2,21,222,kitchens,kitchens,target,None,82,62.23333333333333,72.11666666666667,30,9,9,9,9,9,9,,,,,,,,,0,1,1,1,,,,,,,,,0,20,20,20,,,,,,,,,,,,,,,,,,,,,,,,,,,,,,,,,,,,,297.99183066701517,,,,,,,,,,,,,,,,,,,,,,299.45611162501154,j,1,298.07766437501414,None,,,,,,,,,,,,,,1,,,,2024-06-18_12h23.11.127,SceneCat_2023_2_key_resp,2024.1.1,None,2024-06-18 12h23.58.114316 +0200,
stimuli/img_ifebc.png,j,,0,0,0,1,0,0,1,categorization,2,2,22,223,kitchens,kitchens,target,None,84,65.88235294117646,74.94117647058823,34,10,9,9,9,9,9,,,,,,,,,0,1,1,1,,,,,,,,,0,21,21,21,,,,,,,,,,,,,,,,,,,,,,,,,,,,,,,,,,,,,299.7922782500391,,,,,,,,,,,,,,,,,,,,,,301.1303055420285,j,1,299.8789945830358,None,,,,,,,,,,,,,,1,,,,2024-06-18_12h23.11.127,SceneCat_2023_2_key_resp,2024.1.1,None,2024-06-18 12h23.58.114316 +0200,
stimuli/img_c79r7.png,j,,0,0,0,1,0,0,1,categorization,2,2,23,224,kitchens,kitchens,target,None,56.26470588235294,34.26470588235294,45.26470588235294,34,2,2,2,2,2,2,,,,,,,,,0,1,1,1,,,,,,,,,0,22,22,22,,,,,,,,,,,,,,,,,,,,,,,,,,,,,,,,,,,,,301.45958795800107,,,,,,,,,,,,,,,,,,,,,,303.1070774580003,j,1,301.68700775003526,None,,,,,,,,,,,,,,1,,,,2024-06-18_12h23.11.127,SceneCat_2023_2_key_resp,2024.1.1,None,2024-06-18 12h23.58.114316 +0200,
stimuli/img_7pgd2.png,j,,0,0,0,1,0,0,1,categorization,2,2,24,225,kitchens,kitchens,target,None,78.59375,57.84375,68.21875,32,8,7,7,7,7,7,,,,,,,,,0,1,1,1,,,,,,,,,0,23,23,23,,,,,,,,,,,,,,,,,,,,,,,,,,,,,,,,,,,,,303.43341316701844,,,,,,,,,,,,,,,,,,,,,,304.74049829202704,j,1,303.49108720803633,None,,,,,,,,,,,,,,1,,,,2024-06-18_12h23.11.127,SceneCat_2023_2_key_resp,2024.1.1,None,2024-06-18 12h23.58.114316 +0200,
stimuli/img_uy1n4.png,j,,0,0,0,1,0,0,1,categorization,2,2,25,226,kitchens,kitchens,target,None,76.30555555555556,55.33333333333334,65.81944444444444,36,7,7,7,7,7,7,,,,,,,,,0,1,1,1,,,,,,,,,0,24,24,24,,,,,,,,,,,,,,,,,,,,,,,,,,,,,,,,,,,,,305.0755080420058,,,,,,,,,,,,,,,,,,,,,,306.263914457988,j,1,306.2572275000275,None,,,,,,,,,,,,,,1,,,,2024-06-18_12h23.11.127,SceneCat_2023_2_key_resp,2024.1.1,None,2024-06-18 12h23.58.114316 +0200,
stimuli/img_05flq.png,j,,0,0,0,1,0,0,1,categorization,2,2,26,227,kitchens,kitchens,target,None,47.10344827586207,25.72413793103448,36.41379310344828,29,1,1,1,1,1,1,,,,,,,,,0,1,1,1,,,,,,,,,0,25,25,25,,,,,,,,,,,,,,,,,,,,,,,,,,,,,,,,,,,,,306.5934507920174,,,,,,,,,,,,,,,,,,,,,,308.50766504200874,j,1,307.9730824580183,None,,,,,,,,,,,,,,1,,,,2024-06-18_12h23.11.127,SceneCat_2023_2_key_resp,2024.1.1,None,2024-06-18 12h23.58.114316 +0200,
stimuli/img_uwv6y.png,j,,0,0,0,1,0,0,1,memory,2,2,1,228,kitchens,kitchens,target,old,78.88888888888889,59.30555555555556,69.09722222222223,36,8,8,8,8,8,8,,,,,,,,,0,1,1,1,,,,,,,,,,,,,0,0,0,0,,,,,,,,,,,,,,,,,,,,,,,,,,,,,,,,,308.85756949998904,,,,,,,,,,,,,,,,,,,j,312.0930147920153,None,,,,,,,,,,,,,,,,,,,1,,,,2024-06-18_12h23.11.127,SceneCat_2023_2_key_resp,2024.1.1,None,2024-06-18 12h23.58.114316 +0200,
stimuli/img_s9are.png,j,,0,0,0,1,0,0,1,memory,2,2,2,229,kitchens,kitchens,target,old,90.14285714285714,75.22857142857143,82.68571428571428,35,10,10,10,10,10,10,,,,,,,,,0,1,1,1,,,,,,,,,,,,,0,1,1,1,,,,,,,,,,,,,,,,,,,,,,,,,,,,,,,,,312.98361012502573,,,,,,,,,,,,,,,,,,,j,314.63837762502953,None,,,,,,,,,,,,,,,,,,,1,,,,2024-06-18_12h23.11.127,SceneCat_2023_2_key_resp,2024.1.1,None,2024-06-18 12h23.58.114316 +0200,
stimuli/img_as3da.png,f,,0,0,0,1,0,0,1,memory,2,2,3,230,kitchens,kitchens,None,new,84.53125,63,73.765625,32,9,9,9,9,9,9,,,,,,,,,0,1,1,1,,,,,,,,,,,,,0,2,2,2,,,,,,,,,,,,,,,,,,,,,,,,,,,,,,,,,314.64983574999496,,,,,,,,,,,,,,,,,,,j,316.3360194999841,None,,,,,,,,,,,,,,,,,,,1,,,,2024-06-18_12h23.11.127,SceneCat_2023_2_key_resp,2024.1.1,None,2024-06-18 12h23.58.114316 +0200,
stimuli/img_c0me7.png,j,,0,0,0,1,0,0,1,memory,2,2,4,231,kitchens,kitchens,target,old,68.4,45.62857142857143,57.01428571428572,35,4,4,4,4,4,4,,,,,,,,,0,1,1,1,,,,,,,,,,,,,0,3,3,3,,,,,,,,,,,,,,,,,,,,,,,,,,,,,,,,,316.3508227500133,,,,,,,,,,,,,,,,,,,j,318.142658708035,None,,,,,,,,,,,,,,,,,,,1,,,,2024-06-18_12h23.11.127,SceneCat_2023_2_key_resp,2024.1.1,None,2024-06-18 12h23.58.114316 +0200,
stimuli/img_i2k07.png,j,,0,0,0,1,0,0,1,memory,2,2,5,232,kitchens,kitchens,target,old,64.25925925925925,40.92592592592592,52.59259259259259,27,3,3,3,3,3,3,,,,,,,,,0,1,1,1,,,,,,,,,,,,,0,4,4,4,,,,,,,,,,,,,,,,,,,,,,,,,,,,,,,,,318.16719275002833,,,,,,,,,,,,,,,,,,,j,319.5642939170357,None,,,,,,,,,,,,,,,,,,,1,,,,2024-06-18_12h23.11.127,SceneCat_2023_2_key_resp,2024.1.1,None,2024-06-18 12h23.58.114316 +0200,
stimuli/img_7pgd2.png,j,,0,0,0,1,0,0,1,memory,2,2,6,233,kitchens,kitchens,target,old,78.59375,57.84375,68.21875,32,8,7,7,7,7,7,,,,,,,,,0,1,1,1,,,,,,,,,,,,,0,5,5,5,,,,,,,,,,,,,,,,,,,,,,,,,,,,,,,,,319.57725299999584,,,,,,,,,,,,,,,,,,,j,321.7438095830148,None,,,,,,,,,,,,,,,,,,,1,,,,2024-06-18_12h23.11.127,SceneCat_2023_2_key_resp,2024.1.1,None,2024-06-18 12h23.58.114316 +0200,
stimuli/img_a8wvq.png,j,,0,0,0,1,0,0,1,memory,2,2,7,234,kitchens,kitchens,target,old,86.25925925925925,66.25925925925925,76.25925925925925,27,10,10,10,10,10,10,,,,,,,,,0,1,1,1,,,,,,,,,,,,,0,6,6,6,,,,,,,,,,,,,,,,,,,,,,,,,,,,,,,,,321.7558630830026,,,,,,,,,,,,,,,,,,,j,323.36958179203793,None,,,,,,,,,,,,,,,,,,,1,,,,2024-06-18_12h23.11.127,SceneCat_2023_2_key_resp,2024.1.1,None,2024-06-18 12h23.58.114316 +0200,
stimuli/img_0j24m.png,f,,0,0,0,1,0,0,1,memory,2,2,8,235,kitchens,kitchens,None,new,63.6969696969697,35.75757575757576,49.72727272727273,33,3,3,3,3,3,3,,,,,,,,,0,1,1,1,,,,,,,,,,,,,0,7,7,7,,,,,,,,,,,,,,,,,,,,,,,,,,,,,,,,,323.3894701669924,,,,,,,,,,,,,,,,,,,j,325.0438756250078,None,,,,,,,,,,,,,,,,,,,1,,,,2024-06-18_12h23.11.127,SceneCat_2023_2_key_resp,2024.1.1,None,2024-06-18 12h23.58.114316 +0200,
stimuli/img_ncr40.png,j,,0,0,0,1,0,0,1,memory,2,2,9,236,kitchens,kitchens,target,old,75.66666666666667,54.27272727272727,64.96969696969697,33,6,6,6,6,6,6,,,,,,,,,0,1,1,1,,,,,,,,,,,,,0,8,8,8,,,,,,,,,,,,,,,,,,,,,,,,,,,,,,,,,325.06274316698546,,,,,,,,,,,,,,,,,,,j,327.6027473330032,None,,,,,,,,,,,,,,,,,,,1,,,,2024-06-18_12h23.11.127,SceneCat_2023_2_key_resp,2024.1.1,None,2024-06-18 12h23.58.114316 +0200,
stimuli/img_uspja.png,f,,0,0,0,1,0,0,1,memory,2,2,10,237,kitchens,kitchens,None,new,54.90909090909091,29.12121212121212,42.01515151515152,33,2,2,2,2,2,2,,,,,,,,,0,1,1,1,,,,,,,,,,,,,0,9,9,9,,,,,,,,,,,,,,,,,,,,,,,,,,,,,,,,,327.61800945800496,,,,,,,,,,,,,,,,,,,j,329.3709067500313,None,,,,,,,,,,,,,,,,,,,1,,,,2024-06-18_12h23.11.127,SceneCat_2023_2_key_resp,2024.1.1,None,2024-06-18 12h23.58.114316 +0200,
stimuli/img_qmand.png,f,,0,0,0,1,0,0,1,memory,2,2,11,238,kitchens,kitchens,None,new,86.11764705882354,71.02941176470588,78.57352941176471,34,10,10,10,10,10,10,,,,,,,,,0,1,1,1,,,,,,,,,,,,,0,10,10,10,,,,,,,,,,,,,,,,,,,,,,,,,,,,,,,,,329.40093729202636,,,,,,,,,,,,,,,,,,,j,331.4610272499849,None,,,,,,,,,,,,,,,,,,,1,,,,2024-06-18_12h23.11.127,SceneCat_2023_2_key_resp,2024.1.1,None,2024-06-18 12h23.58.114316 +0200,
stimuli/img_u9f9l.png,f,,0,0,0,1,0,0,1,memory,2,2,12,239,kitchens,kitchens,None,new,77.78571428571429,57.25,67.51785714285714,28,7,7,7,7,7,7,,,,,,,,,0,1,1,1,,,,,,,,,,,,,0,11,11,11,,,,,,,,,,,,,,,,,,,,,,,,,,,,,,,,,331.4842470420408,,,,,,,,,,,,,,,,,,,j,333.63184041698696,None,,,,,,,,,,,,,,,,,,,1,,,,2024-06-18_12h23.11.127,SceneCat_2023_2_key_resp,2024.1.1,None,2024-06-18 12h23.58.114316 +0200,
stimuli/img_oz18d.png,f,,0,0,0,1,0,0,1,memory,2,2,13,240,kitchens,kitchens,None,new,78.93939393939394,61.03030303030303,69.98484848484848,33,8,8,8,8,8,8,,,,,,,,,0,1,1,1,,,,,,,,,,,,,0,12,12,12,,,,,,,,,,,,,,,,,,,,,,,,,,,,,,,,,333.65116583299823,,,,,,,,,,,,,,,,,,,j,335.53726254199864,None,,,,,,,,,,,,,,,,,,,1,,,,2024-06-18_12h23.11.127,SceneCat_2023_2_key_resp,2024.1.1,None,2024-06-18 12h23.58.114316 +0200,
stimuli/img_ifebc.png,j,,0,0,0,1,0,0,1,memory,2,2,14,241,kitchens,kitchens,target,old,84,65.88235294117646,74.94117647058823,34,10,9,9,9,9,9,,,,,,,,,0,1,1,1,,,,,,,,,,,,,0,13,13,13,,,,,,,,,,,,,,,,,,,,,,,,,,,,,,,,,335.5568293330143,,,,,,,,,,,,,,,,,,,j,337.4800725420355,None,,,,,,,,,,,,,,,,,,,1,,,,2024-06-18_12h23.11.127,SceneCat_2023_2_key_resp,2024.1.1,None,2024-06-18 12h23.58.114316 +0200,
stimuli/img_z5osu.png,f,,0,0,0,1,0,0,1,memory,2,2,15,242,kitchens,kitchens,None,new,71.42857142857143,47.34285714285714,59.38571428571429,35,5,5,5,5,5,5,,,,,,,,,0,1,1,1,,,,,,,,,,,,,0,14,14,14,,,,,,,,,,,,,,,,,,,,,,,,,,,,,,,,,337.5016653750208,,,,,,,,,,,,,,,,,,,j,339.38676741701784,None,,,,,,,,,,,,,,,,,,,1,,,,2024-06-18_12h23.11.127,SceneCat_2023_2_key_resp,2024.1.1,None,2024-06-18 12h23.58.114316 +0200,
stimuli/img_t1cr9.png,f,,0,0,0,1,0,0,1,memory,2,2,16,243,kitchens,kitchens,None,new,73.66666666666667,53.51515151515152,63.59090909090909,33,6,6,6,6,6,6,,,,,,,,,0,1,1,1,,,,,,,,,,,,,0,15,15,15,,,,,,,,,,,,,,,,,,,,,,,,,,,,,,,,,339.40778633300215,,,,,,,,,,,,,,,,,,,j,341.090100292,None,,,,,,,,,,,,,,,,,,,1,,,,2024-06-18_12h23.11.127,SceneCat_2023_2_key_resp,2024.1.1,None,2024-06-18 12h23.58.114316 +0200,
stimuli/img_05flq.png,j,,0,0,0,1,0,0,1,memory,2,2,17,244,kitchens,kitchens,target,old,47.10344827586207,25.72413793103448,36.41379310344828,29,1,1,1,1,1,1,,,,,,,,,0,1,1,1,,,,,,,,,,,,,0,16,16,16,,,,,,,,,,,,,,,,,,,,,,,,,,,,,,,,,341.1019723750069,,,,,,,,,,,,,,,,,,,j,342.30882412503706,None,,,,,,,,,,,,,,,,,,,1,,,,2024-06-18_12h23.11.127,SceneCat_2023_2_key_resp,2024.1.1,None,2024-06-18 12h23.58.114316 +0200,
stimuli/catch_12_supermarket.jpg,f,,0,0,0,1,0,0,1,memory,2,2,18,245,kitchens,None,None,catch,None,None,None,None,None,None,None,None,None,None,,,,,,,,,0,1,1,1,,,,,,,,,,,,,0,17,17,17,,,,,,,,,,,,,,,,,,,,,,,,,,,,,,,,,343.06907537503866,,,,,,,,,,,,,,,,,,,j,345.0870017920388,None,,,,,,,,,,,,,,,,,,,1,,,,2024-06-18_12h23.11.127,SceneCat_2023_2_key_resp,2024.1.1,None,2024-06-18 12h23.58.114316 +0200,
stimuli/img_84s7n.png,j,,0,0,0,1,0,0,1,memory,2,2,19,246,kitchens,kitchens,target,old,11.03125,2.90625,6.96875,32,1,1,1,1,1,1,,,,,,,,,0,1,1,1,,,,,,,,,,,,,0,18,18,18,,,,,,,,,,,,,,,,,,,,,,,,,,,,,,,,,345.1182644580258,,,,,,,,,,,,,,,,,,,j,347.0103119169944,None,,,,,,,,,,,,,,,,,,,1,,,,2024-06-18_12h23.11.127,SceneCat_2023_2_key_resp,2024.1.1,None,2024-06-18 12h23.58.114316 +0200,
stimuli/img_8fpog.png,f,,0,0,0,1,0,0,1,memory,2,2,20,247,kitchens,kitchens,None,new,85.41666666666667,72.30555555555556,78.86111111111111,36,10,10,10,10,10,10,,,,,,,,,0,1,1,1,,,,,,,,,,,,,0,19,19,19,,,,,,,,,,,,,,,,,,,,,,,,,,,,,,,,,347.0287558329874,,,,,,,,,,,,,,,,,,,j,348.5286049169954,None,,,,,,,,,,,,,,,,,,,1,,,,2024-06-18_12h23.11.127,SceneCat_2023_2_key_resp,2024.1.1,None,2024-06-18 12h23.58.114316 +0200,
stimuli/img_411xa.png,j,,0,0,0,1,0,0,1,memory,2,2,21,248,kitchens,kitchens,target,old,51.03030303030303,28.93939393939394,39.98484848484848,33,2,2,2,2,2,2,,,,,,,,,0,1,1,1,,,,,,,,,,,,,0,20,20,20,,,,,,,,,,,,,,,,,,,,,,,,,,,,,,,,,348.53958566702204,,,,,,,,,,,,,,,,,,,j,350.22194337501423,None,,,,,,,,,,,,,,,,,,,1,,,,2024-06-18_12h23.11.127,SceneCat_2023_2_key_resp,2024.1.1,None,2024-06-18 12h23.58.114316 +0200,
stimuli/img_h1yyu.png,f,,0,0,0,1,0,0,1,memory,2,2,22,249,kitchens,kitchens,None,new,64.8529411764706,46.61764705882353,55.73529411764706,34,4,4,4,4,4,4,,,,,,,,,0,1,1,1,,,,,,,,,,,,,0,21,21,21,,,,,,,,,,,,,,,,,,,,,,,,,,,,,,,,,350.24040229199454,,,,,,,,,,,,,,,,,,,j,352.62905320798745,None,,,,,,,,,,,,,,,,,,,1,,,,2024-06-18_12h23.11.127,SceneCat_2023_2_key_resp,2024.1.1,None,2024-06-18 12h23.58.114316 +0200,
stimuli/img_xesl0.png,j,,0,0,0,1,0,0,1,memory,2,2,23,250,kitchens,kitchens,target,old,69.28571428571429,47.35714285714285,58.32142857142857,28,5,5,5,5,5,5,,,,,,,,,0,1,1,1,,,,,,,,,,,,,0,22,22,22,,,,,,,,,,,,,,,,,,,,,,,,,,,,,,,,,352.64114683301887,,,,,,,,,,,,,,,,,,,j,354.80386341700796,None,,,,,,,,,,,,,,,,,,,1,,,,2024-06-18_12h23.11.127,SceneCat_2023_2_key_resp,2024.1.1,None,2024-06-18 12h23.58.114316 +0200,
stimuli/img_ua9bs.png,j,,0,0,0,1,0,0,1,memory,2,2,24,251,kitchens,kitchens,target,old,82,62.23333333333333,72.11666666666667,30,9,9,9,9,9,9,,,,,,,,,0,1,1,1,,,,,,,,,,,,,0,23,23,23,,,,,,,,,,,,,,,,,,,,,,,,,,,,,,,,,354.8240789999836,,,,,,,,,,,,,,,,,,,j,356.54907566698967,None,,,,,,,,,,,,,,,,,,,1,,,,2024-06-18_12h23.11.127,SceneCat_2023_2_key_resp,2024.1.1,None,2024-06-18 12h23.58.114316 +0200,
stimuli/img_l9t30.png,f,,0,0,0,1,0,0,1,memory,2,2,25,252,kitchens,kitchens,None,new,67.2,43.14285714285715,55.17142857142858,35,4,4,4,4,4,4,,,,,,,,,0,1,1,1,,,,,,,,,,,,,0,24,24,24,,,,,,,,,,,,,,,,,,,,,,,,,,,,,,,,,356.56858854199527,,,,,,,,,,,,,,,,,,,j,358.2042225000332,None,,,,,,,,,,,,,,,,,,,1,,,,2024-06-18_12h23.11.127,SceneCat_2023_2_key_resp,2024.1.1,None,2024-06-18 12h23.58.114316 +0200,
stimuli/img_uy1n4.png,j,,0,0,0,1,0,0,1,memory,2,2,26,253,kitchens,kitchens,target,old,76.30555555555556,55.33333333333334,65.81944444444444,36,7,7,7,7,7,7,,,,,,,,,0,1,1,1,,,,,,,,,,,,,0,25,25,25,,,,,,,,,,,,,,,,,,,,,,,,,,,,,,,,,358.2256662499858,,,,,,,,,,,,,,,,,,,j,360.72722566704033,None,,,,,,,,,,,,,,,,,,,1,,,,2024-06-18_12h23.11.127,SceneCat_2023_2_key_resp,2024.1.1,None,2024-06-18 12h23.58.114316 +0200,
stimuli/img_xti0z.png,j,,0,0,0,1,0,0,1,memory,2,2,27,254,kitchens,kitchens,target,old,81.40625,61.4375,71.421875,32,8,8,8,8,8,8,,,,,,,,,0,1,1,1,,,,,,,,,,,,,0,26,26,26,,,,,,,,,,,,,,,,,,,,,,,,,,,,,,,,,360.7426488749916,,,,,,,,,,,,,,,,,,,j,362.47019683301914,None,,,,,,,,,,,,,,,,,,,1,,,,2024-06-18_12h23.11.127,SceneCat_2023_2_key_resp,2024.1.1,None,2024-06-18 12h23.58.114316 +0200,
stimuli/img_c79r7.png,j,,0,0,0,1,0,0,1,memory,2,2,28,255,kitchens,kitchens,target,old,56.26470588235294,34.26470588235294,45.26470588235294,34,2,2,2,2,2,2,,,,,,,,,0,1,1,1,,,,,,,,,,,,,0,27,27,27,,,,,,,,,,,,,,,,,,,,,,,,,,,,,,,,,362.48534374998417,,,,,,,,,,,,,,,,,,,j,364.40469412499806,None,,,,,,,,,,,,,,,,,,,1,,,,2024-06-18_12h23.11.127,SceneCat_2023_2_key_resp,2024.1.1,None,2024-06-18 12h23.58.114316 +0200,
stimuli/img_qbkdt.png,f,,0,0,0,1,0,0,1,memory,2,2,29,256,kitchens,kitchens,None,new,69.45714285714286,50.02857142857143,59.74285714285715,35,5,5,5,5,5,5,,,,,,,,,0,1,1,1,,,,,,,,,,,,,0,28,28,28,,,,,,,,,,,,,,,,,,,,,,,,,,,,,,,,,364.43558445799863,,,,,,,,,,,,,,,,,,,j,366.5606813750346,None,,,,,,,,,,,,,,,,,,,1,,,,2024-06-18_12h23.11.127,SceneCat_2023_2_key_resp,2024.1.1,None,2024-06-18 12h23.58.114316 +0200,
stimuli/img_hfz8w.png,f,,0,0,0,1,0,0,1,memory,2,2,30,257,kitchens,kitchens,None,new,55.46153846153846,27.28205128205128,41.37179487179487,39,2,2,2,2,2,2,,,,,,,,,0,1,1,1,,,,,,,,,,,,,0,29,29,29,,,,,,,,,,,,,,,,,,,,,,,,,,,,,,,,,366.585615042015,,,,,,,,,,,,,,,,,,,j,368.4589688749984,None,,,,,,,,,,,,,,,,,,,1,,,,2024-06-18_12h23.11.127,SceneCat_2023_2_key_resp,2024.1.1,None,2024-06-18 12h23.58.114316 +0200,
stimuli/img_k3abb.png,f,,0,0,0,1,0,0,1,memory,2,2,31,258,kitchens,kitchens,None,new,35.54054054054054,16.54054054054054,26.04054054054054,37,1,1,1,1,1,1,,,,,,,,,0,1,1,1,,,,,,,,,,,,,0,30,30,30,,,,,,,,,,,,,,,,,,,,,,,,,,,,,,,,,368.5554327080026,,,,,,,,,,,,,,,,,,,j,370.71368808299303,None,,,,,,,,,,,,,,,,,,,1,,,,2024-06-18_12h23.11.127,SceneCat_2023_2_key_resp,2024.1.1,None,2024-06-18 12h23.58.114316 +0200,
stimuli/img_bwo9g.png,j,,0,0,0,1,0,0,1,memory,2,2,32,259,kitchens,kitchens,target,old,64.81818181818181,42.36363636363637,53.59090909090909,33,4,4,4,4,4,4,,,,,,,,,0,1,1,1,,,,,,,,,,,,,0,31,31,31,,,,,,,,,,,,,,,,,,,,,,,,,,,,,,,,,370.72425137500977,,,,,,,,,,,,,,,,,,,j,None,None,,,,,,,,,,,,,,,,,,,1,,,,2024-06-18_12h23.11.127,SceneCat_2023_2_key_resp,2024.1.1,None,2024-06-18 12h23.58.114316 +0200,
stimuli/img_j5rpx.png,j,,0,0,0,1,0,0,1,memory,2,2,33,260,kitchens,kitchens,target,old,72.24242424242425,50,61.12121212121212,33,5,5,5,5,5,5,,,,,,,,,0,1,1,1,,,,,,,,,,,,,0,32,32,32,,,,,,,,,,,,,,,,,,,,,,,,,,,,,,,,,372.28598779201275,,,,,,,,,,,,,,,,,,,j,374.23306191700976,None,,,,,,,,,,,,,,,,,,,1,,,,2024-06-18_12h23.11.127,SceneCat_2023_2_key_resp,2024.1.1,None,2024-06-18 12h23.58.114316 +0200,
stimuli/img_jz3kd.png,j,,0,0,0,1,0,0,1,memory,2,2,34,261,kitchens,kitchens,target,old,72.79411764705883,51.64705882352941,62.22058823529412,34,6,6,6,6,6,6,,,,,,,,,0,1,1,1,,,,,,,,,,,,,0,33,33,33,,,,,,,,,,,,,,,,,,,,,,,,,,,,,,,,,374.24625495803775,,,,,,,,,,,,,,,,,,,j,376.74916187499184,None,,,,,,,,,,,,,,,,,,,1,,,,2024-06-18_12h23.11.127,SceneCat_2023_2_key_resp,2024.1.1,None,2024-06-18 12h23.58.114316 +0200,
stimuli/img_57os5.png,f,,0,0,0,1,0,0,1,memory,2,2,35,262,kitchens,kitchens,None,new,82.70588235294117,65.73529411764706,74.22058823529412,34,9,9,9,9,9,9,,,,,,,,,0,1,1,1,,,,,,,,,,,,,0,34,34,34,,,,,,,,,,,,,,,,,,,,,,,,,,,,,,,,,376.76920658303425,,,,,,,,,,,,,,,,,,,j,378.507500333013,None,,,,,,,,,,,,,,,,,,,1,,,,2024-06-18_12h23.11.127,SceneCat_2023_2_key_resp,2024.1.1,None,2024-06-18 12h23.58.114316 +0200,
stimuli/img_01w8b.png,f,,0,0,0,1,0,0,1,memory,2,2,36,263,kitchens,kitchens,None,new,78.91891891891892,61.21621621621622,70.06756756756756,37,8,8,8,8,8,8,,,,,,,,,0,1,1,1,,,,,,,,,,,,,0,35,35,35,,,,,,,,,,,,,,,,,,,,,,,,,,,,,,,,,378.5601001670002,,,,,,,,,,,,,,,,,,,j,380.12090070801787,None,,,,,,,,,,,,,,,,,,,1,,,,2024-06-18_12h23.11.127,SceneCat_2023_2_key_resp,2024.1.1,None,2024-06-18 12h23.58.114316 +0200,
stimuli/img_5949k.png,f,,0,0,0,1,0,0,1,memory,2,2,37,264,kitchens,kitchens,None,new,60.8,39.2,50,35,3,3,3,3,3,3,,,,,,,,,0,1,1,1,,,,,,,,,,,,,0,36,36,36,,,,,,,,,,,,,,,,,,,,,,,,,,,,,,,,,380.14122637500986,,,,,,,,,,,,,,,,,,,j,381.6564294170239,None,,,,,,,,,,,,,,,,,,,1,,,,2024-06-18_12h23.11.127,SceneCat_2023_2_key_resp,2024.1.1,None,2024-06-18 12h23.58.114316 +0200,
stimuli/img_ensho.png,f,,0,0,0,1,0,0,1,memory,2,2,38,265,kitchens,kitchens,None,new,72.7948717948718,54.56410256410256,63.67948717948718,39,6,6,6,6,6,6,,,,,,,,,0,1,1,1,,,,,,,,,,,,,0,37,37,37,,,,,,,,,,,,,,,,,,,,,,,,,,,,,,,,,381.6759570830036,,,,,,,,,,,,,,,,,,,j,383.7879560420406,None,,,,,,,,,,,,,,,,,,,1,,,,2024-06-18_12h23.11.127,SceneCat_2023_2_key_resp,2024.1.1,None,2024-06-18 12h23.58.114316 +0200,
stimuli/img_cv9qj.png,j,,0,0,0,1,0,0,1,memory,2,2,39,266,kitchens,kitchens,target,old,60.34375,35.34375,47.84375,32,3,3,3,3,3,3,,,,,,,,,0,1,1,1,,,,,,,,,,,,,0,38,38,38,,,,,,,,,,,,,,,,,,,,,,,,,,,,,,,,,383.8034939580248,,,,,,,,,,,,,,,,,,,j,386.21198045799974,None,,,,,,,,,,,,,,,,,,,1,,,,2024-06-18_12h23.11.127,SceneCat_2023_2_key_resp,2024.1.1,None,2024-06-18 12h23.58.114316 +0200,
stimuli/img_fhm45.png,f,,0,0,0,1,0,0,1,memory,2,2,40,267,kitchens,kitchens,None,new,76.75,57.71875,67.234375,32,7,7,7,7,7,7,,,,,,,,,0,1,1,1,,,,,,,,,,,,,0,39,39,39,,,,,,,,,,,,,,,,,,,,,,,,,,,,,,,,,386.22462179203285,,,,,,,,,,,,,,,,,,,j,387.8849987499998,None,,,,,,,,,,,,,,,,,,,1,,,,2024-06-18_12h23.11.127,SceneCat_2023_2_key_resp,2024.1.1,None,2024-06-18 12h23.58.114316 +0200,
stimuli/img_faly8.png,f,,0,0,0,1,0,0,1,memory,2,2,41,268,kitchens,kitchens,None,new,33.41176470588236,19.23529411764706,26.32352941176471,34,1,1,1,1,1,1,,,,,,,,,0,1,1,1,,,,,,,,,,,,,0,40,40,40,,,,,,,,,,,,,,,,,,,,,,,,,,,,,,,,,387.90377554198494,,,,,,,,,,,,,,,,,,,j,389.7042190830107,None,,,,,,,,,,,,,,,,,,,1,,,,2024-06-18_12h23.11.127,SceneCat_2023_2_key_resp,2024.1.1,None,2024-06-18 12h23.58.114316 +0200,
,,,0,0,0,1,0,0,,,,,,,,,,,,,,,,,,,,,,,,,,,,,0,1,1,1,,,,,,,,,,,,,,,,,,,,,,,,,,,,,,,,,,,,,,,,,,,,,,,,,,,,,,,,,,,,,,,,,,,,,,,,,,,,,,,,,,,,,,,,,1,,,,2024-06-18_12h23.11.127,SceneCat_2023_2_key_resp,2024.1.1,None,2024-06-18 12h23.58.114316 +0200,
stimuli/img_088sa.png,f,,0,1,0,0,0,0,1,categorization,3,1,1,68,living_rooms,bedrooms,distractor,None,67.36363636363636,42.12121212121212,54.74242424242424,33,4,4,4,4,4,4,,,,,,,,,0,2,2,2,,,,,,,,,,,,,,,,,0,0,0,0,,,,,,,,,,,,,,,,,,,,,,,,,,,,,391.54749779199483,,,,,,,,,,,,,,,,,,,,,,,,,,,391.93200829200214,391.93200829200214,395.1504682500381,j,0,395.45519337500446,None,,,,,,,1,,,,2024-06-18_12h23.11.127,SceneCat_2023_2_key_resp,2024.1.1,None,2024-06-18 12h23.58.114316 +0200,
stimuli/img_bg264.png,j,,0,1,0,0,0,0,1,categorization,3,1,2,69,living_rooms,living_rooms,target,None,87.9047619047619,71.5,79.70238095238095,42,10,10,10,9,10,9,,,,,,,,,0,2,2,2,,,,,,,,,,,,,,,,,0,1,1,1,,,,,,,,,,,,,,,,,,,,,,,,,,,,,395.47892929200316,,,,,,,,,,,,,,,,,,,,,,,,,,,,,397.1181194999954,j,1,397.4719151669997,None,,,,,,,1,,,,2024-06-18_12h23.11.127,SceneCat_2023_2_key_resp,2024.1.1,None,2024-06-18 12h23.58.114316 +0200,
stimuli/img_4ufga.png,f,,0,1,0,0,0,0,1,categorization,3,1,3,70,living_rooms,kitchens,distractor,None,67.79411764705883,41.5,54.64705882352941,34,4,4,4,4,4,4,,,,,,,,,0,2,2,2,,,,,,,,,,,,,,,,,0,2,2,2,,,,,,,,,,,,,,,,,,,,,,,,,,,,,397.503562583006,,,,,,,,,,,,,,,,,,,,,,,,,,,,,398.7584055000334,j,0,399.2885577499983,None,,,,,,,1,,,,2024-06-18_12h23.11.127,SceneCat_2023_2_key_resp,2024.1.1,None,2024-06-18 12h23.58.114316 +0200,
stimuli/img_kq9s9.png,j,,0,1,0,0,0,0,1,categorization,3,1,4,71,living_rooms,living_rooms,target,None,62.30232558139535,39.97674418604651,51.13953488372093,43,4,4,4,5,5,4,,,,,,,,,0,2,2,2,,,,,,,,,,,,,,,,,0,3,3,3,,,,,,,,,,,,,,,,,,,,,,,,,,,,,399.32040887500625,,,,,,,,,,,,,,,,,,,,,,,,,,,,,400.7179935000022,j,1,401.3451040420332,None,,,,,,,1,,,,2024-06-18_12h23.11.127,SceneCat_2023_2_key_resp,2024.1.1,None,2024-06-18 12h23.58.114316 +0200,
stimuli/img_njhlh.png,j,,0,1,0,0,0,0,1,categorization,3,1,5,72,living_rooms,living_rooms,target,None,59.74418604651163,41.51162790697674,50.62790697674419,43,4,4,4,4,4,4,,,,,,,,,0,2,2,2,,,,,,,,,,,,,,,,,0,4,4,4,,,,,,,,,,,,,,,,,,,,,,,,,,,,,401.3628958330373,,,,,,,,,,,,,,,,,,,,,,,,,,,,,403.36581066699,j,1,404.51016866700957,None,404.11030087503605,,,,,,1,,,,2024-06-18_12h23.11.127,SceneCat_2023_2_key_resp,2024.1.1,None,2024-06-18 12h23.58.114316 +0200,
stimuli/img_d3t0o.png,f,,0,1,0,0,0,0,1,categorization,3,1,6,73,living_rooms,bedrooms,distractor,None,66.95121951219512,42.92682926829269,54.9390243902439,41,4,4,4,4,4,4,,,,,,,,,0,2,2,2,,,,,,,,,,,,,,,,,0,5,5,5,,,,,,,,,,,,,,,,,,,,,,,,,,,,,404.53768241702346,,,,,,,,,,,,,,,,,,,,,,,,,,,,,405.64057749998756,j,0,406.1340645420132,None,,,,,,,1,,,,2024-06-18_12h23.11.127,SceneCat_2023_2_key_resp,2024.1.1,None,2024-06-18 12h23.58.114316 +0200,
stimuli/img_2qhro.png,j,,0,1,0,0,0,0,1,categorization,3,1,7,74,living_rooms,living_rooms,target,None,81.73809523809524,62.73809523809524,72.23809523809524,42,8,8,8,8,8,8,,,,,,,,,0,2,2,2,,,,,,,,,,,,,,,,,0,6,6,6,,,,,,,,,,,,,,,,,,,,,,,,,,,,,406.14837491698563,,,,,,,,,,,,,,,,,,,,,,,,,,,,,407.89421312499326,j,1,408.59615695802495,None,,,,,,,1,,,,2024-06-18_12h23.11.127,SceneCat_2023_2_key_resp,2024.1.1,None,2024-06-18 12h23.58.114316 +0200,
stimuli/img_xbtev.png,j,,0,1,0,0,0,0,1,categorization,3,1,8,75,living_rooms,living_rooms,target,None,13.68181818181818,8.568181818181818,11.125,44,1,1,1,1,1,1,,,,,,,,,0,2,2,2,,,,,,,,,,,,,,,,,0,7,7,7,,,,,,,,,,,,,,,,,,,,,,,,,,,,,408.61294308298966,,,,,,,,,,,,,,,,,,,,,,,,,,,,,410.47859050001716,j,1,410.8959501670324,None,,,,,,,1,,,,2024-06-18_12h23.11.127,SceneCat_2023_2_key_resp,2024.1.1,None,2024-06-18 12h23.58.114316 +0200,
stimuli/img_r10cu.png,j,,0,1,0,0,0,0,1,categorization,3,1,9,76,living_rooms,living_rooms,target,None,78.52380952380952,56.14285714285715,67.33333333333333,42,7,7,7,7,7,6,,,,,,,,,0,2,2,2,,,,,,,,,,,,,,,,,0,8,8,8,,,,,,,,,,,,,,,,,,,,,,,,,,,,,410.91335087502375,,,,,,,,,,,,,,,,,,,,,,,,,,,,,412.1117032080074,j,1,412.4886267920374,None,,,,,,,1,,,,2024-06-18_12h23.11.127,SceneCat_2023_2_key_resp,2024.1.1,None,2024-06-18 12h23.58.114316 +0200,
stimuli/img_tv8e2.png,j,,0,1,0,0,0,0,1,categorization,3,1,10,77,living_rooms,living_rooms,target,None,71.93023255813954,50.25581395348837,61.09302325581395,43,6,6,6,6,6,6,,,,,,,,,0,2,2,2,,,,,,,,,,,,,,,,,0,9,9,9,,,,,,,,,,,,,,,,,,,,,,,,,,,,,412.52127725002356,,,,,,,,,,,,,,,,,,,,,,,,,,,,,414.3696484580287,j,1,414.57267308299197,None,,,,,,,1,,,,2024-06-18_12h23.11.127,SceneCat_2023_2_key_resp,2024.1.1,None,2024-06-18 12h23.58.114316 +0200,
stimuli/img_3ze38.png,j,,0,1,0,0,0,0,1,categorization,3,1,11,78,living_rooms,living_rooms,target,None,35.53191489361702,28.4468085106383,31.98936170212766,47,2,2,2,3,2,3,,,,,,,,,0,2,2,2,,,,,,,,,,,,,,,,,0,10,10,10,,,,,,,,,,,,,,,,,,,,,,,,,,,,,414.70410766702844,,,,,,,,,,,,,,,,,,,,,,,,,,,,,416.49272525002016,j,1,417.0179198330152,None,,,,,,,1,,,,2024-06-18_12h23.11.127,SceneCat_2023_2_key_resp,2024.1.1,None,2024-06-18 12h23.58.114316 +0200,
stimuli/img_vnxft.png,j,,0,1,0,0,0,0,1,categorization,3,1,12,79,living_rooms,living_rooms,target,None,53.22727272727273,34.84090909090909,44.03409090909091,44,3,3,3,4,3,4,,,,,,,,,0,2,2,2,,,,,,,,,,,,,,,,,0,11,11,11,,,,,,,,,,,,,,,,,,,,,,,,,,,,,417.0321182080079,,,,,,,,,,,,,,,,,,,,,,,,,,,,,418.71212824998656,j,1,419.0056414999999,None,,,,,,,1,,,,2024-06-18_12h23.11.127,SceneCat_2023_2_key_resp,2024.1.1,None,2024-06-18 12h23.58.114316 +0200,
stimuli/img_9684y.png,j,,0,1,0,0,0,0,1,categorization,3,1,13,80,living_rooms,living_rooms,target,None,77.95744680851064,56.70212765957447,67.32978723404256,47,7,7,7,6,7,7,,,,,,,,,0,2,2,2,,,,,,,,,,,,,,,,,0,12,12,12,,,,,,,,,,,,,,,,,,,,,,,,,,,,,419.04770266701235,,,,,,,,,,,,,,,,,,,,,,,,,,,,,420.16262658301275,j,1,420.81755554198753,None,,,,,,,1,,,,2024-06-18_12h23.11.127,SceneCat_2023_2_key_resp,2024.1.1,None,2024-06-18 12h23.58.114316 +0200,
stimuli/img_sx68r.png,j,,0,1,0,0,0,0,1,categorization,3,1,14,81,living_rooms,living_rooms,target,None,54,33.2051282051282,43.6025641025641,39,3,3,3,3,4,3,,,,,,,,,0,2,2,2,,,,,,,,,,,,,,,,,0,13,13,13,,,,,,,,,,,,,,,,,,,,,,,,,,,,,420.8315825830214,,,,,,,,,,,,,,,,,,,,,,,,,,,,,422.63238304201514,j,1,422.9568827920011,None,,,,,,,1,,,,2024-06-18_12h23.11.127,SceneCat_2023_2_key_resp,2024.1.1,None,2024-06-18 12h23.58.114316 +0200,
stimuli/img_twj5p.png,f,,0,1,0,0,0,0,1,categorization,3,1,15,82,living_rooms,bedrooms,distractor,None,67.71739130434783,42.08695652173913,54.90217391304348,46,4,4,4,4,5,4,,,,,,,,,0,2,2,2,,,,,,,,,,,,,,,,,0,14,14,14,,,,,,,,,,,,,,,,,,,,,,,,,,,,,422.97470691701164,,,,,,,,,,,,,,,,,,,,,,,,,,,,,424.7951235420187,j,0,425.07922304200474,None,,,,,,,1,,,,2024-06-18_12h23.11.127,SceneCat_2023_2_key_resp,2024.1.1,None,2024-06-18 12h23.58.114316 +0200,
stimuli/img_mdh76.png,j,,0,1,0,0,0,0,1,categorization,3,1,16,83,living_rooms,living_rooms,target,None,37.31914893617022,25.12765957446809,31.22340425531915,47,2,2,2,2,3,2,,,,,,,,,0,2,2,2,,,,,,,,,,,,,,,,,0,15,15,15,,,,,,,,,,,,,,,,,,,,,,,,,,,,,425.1211192079936,,,,,,,,,,,,,,,,,,,,,,,,,,,,,427.1024735830142,j,1,427.43106733303284,None,,,,,,,1,,,,2024-06-18_12h23.11.127,SceneCat_2023_2_key_resp,2024.1.1,None,2024-06-18 12h23.58.114316 +0200,
stimuli/img_3gm8h.png,f,,0,1,0,0,0,0,1,categorization,3,1,17,84,living_rooms,kitchens,distractor,None,65.07894736842105,43.92105263157895,54.5,38,4,4,4,4,4,4,,,,,,,,,0,2,2,2,,,,,,,,,,,,,,,,,0,16,16,16,,,,,,,,,,,,,,,,,,,,,,,,,,,,,427.4481931250193,,,,,,,,,,,,,,,,,,,,,,,,,,,,,429.08578641701024,j,0,429.39325520803686,None,,,,,,,1,,,,2024-06-18_12h23.11.127,SceneCat_2023_2_key_resp,2024.1.1,None,2024-06-18 12h23.58.114316 +0200,
stimuli/img_pt3d7.png,f,,0,1,0,0,0,0,1,categorization,3,1,18,85,living_rooms,kitchens,distractor,None,65.08571428571429,44.65714285714286,54.87142857142857,35,4,4,4,4,4,4,,,,,,,,,0,2,2,2,,,,,,,,,,,,,,,,,0,17,17,17,,,,,,,,,,,,,,,,,,,,,,,,,,,,,429.4213168750284,,,,,,,,,,,,,,,,,,,,,,,,,,,,,431.0445813330007,j,0,431.33976454200456,None,,,,,,,1,,,,2024-06-18_12h23.11.127,SceneCat_2023_2_key_resp,2024.1.1,None,2024-06-18 12h23.58.114316 +0200,
stimuli/img_vg73h.png,j,,0,1,0,0,0,0,1,categorization,3,1,19,86,living_rooms,living_rooms,target,None,87.7,72.4,80.05000000000001,50,10,10,10,10,10,10,,,,,,,,,0,2,2,2,,,,,,,,,,,,,,,,,0,18,18,18,,,,,,,,,,,,,,,,,,,,,,,,,,,,,431.3721150000347,,,,,,,,,,,,,,,,,,,,,,,,,,,,,433.29492412501713,j,1,433.877997875039,None,,,,,,,1,,,,2024-06-18_12h23.11.127,SceneCat_2023_2_key_resp,2024.1.1,None,2024-06-18 12h23.58.114316 +0200,
stimuli/img_6wne4.png,j,,0,1,0,0,0,0,1,categorization,3,1,20,87,living_rooms,living_rooms,target,None,25.16279069767442,15,20.08139534883721,43,1,1,1,1,2,1,,,,,,,,,0,2,2,2,,,,,,,,,,,,,,,,,0,19,19,19,,,,,,,,,,,,,,,,,,,,,,,,,,,,,433.8891397920088,,,,,,,,,,,,,,,,,,,,,,,,,,,,,435.4451906250324,j,1,435.7433482920169,None,,,,,,,1,,,,2024-06-18_12h23.11.127,SceneCat_2023_2_key_resp,2024.1.1,None,2024-06-18 12h23.58.114316 +0200,
stimuli/img_99exx.png,j,,0,1,0,0,0,0,1,categorization,3,1,21,88,living_rooms,living_rooms,target,None,70.02272727272727,51.88636363636363,60.95454545454545,44,6,6,6,5,5,6,,,,,,,,,0,2,2,2,,,,,,,,,,,,,,,,,0,20,20,20,,,,,,,,,,,,,,,,,,,,,,,,,,,,,435.77160174999153,,,,,,,,,,,,,,,,,,,,,,,,,,,,,437.499816458032,j,1,440.8479472080362,None,438.2452374169952,,,,,,1,,,,2024-06-18_12h23.11.127,SceneCat_2023_2_key_resp,2024.1.1,None,2024-06-18 12h23.58.114316 +0200,
stimuli/img_di6f0.png,j,,0,1,0,0,0,0,1,categorization,3,1,22,89,living_rooms,living_rooms,target,None,94.04347826086956,83.34782608695652,88.69565217391303,46,10,10,10,10,10,10,,,,,,,,,0,2,2,2,,,,,,,,,,,,,,,,,0,21,21,21,,,,,,,,,,,,,,,,,,,,,,,,,,,,,440.86593058303697,,,,,,,,,,,,,,,,,,,,,,,,,,,,,441.91228550003143,j,1,442.3483762500109,None,,,,,,,1,,,,2024-06-18_12h23.11.127,SceneCat_2023_2_key_resp,2024.1.1,None,2024-06-18 12h23.58.114316 +0200,
stimuli/img_j73b6.png,j,,0,1,0,0,0,0,1,categorization,3,1,23,90,living_rooms,living_rooms,target,None,21.5609756097561,19.90243902439024,20.73170731707317,41,1,1,1,2,1,2,,,,,,,,,0,2,2,2,,,,,,,,,,,,,,,,,0,22,22,22,,,,,,,,,,,,,,,,,,,,,,,,,,,,,442.365965917008,,,,,,,,,,,,,,,,,,,,,,,,,,,,,443.646891958022,j,1,444.0311600000132,None,,,,,,,1,,,,2024-06-18_12h23.11.127,SceneCat_2023_2_key_resp,2024.1.1,None,2024-06-18 12h23.58.114316 +0200,
stimuli/img_tujn3.png,j,,0,1,0,0,0,0,1,categorization,3,1,24,91,living_rooms,living_rooms,target,None,81.4090909090909,62.52272727272727,71.9659090909091,44,8,8,8,7,8,7,,,,,,,,,0,2,2,2,,,,,,,,,,,,,,,,,0,23,23,23,,,,,,,,,,,,,,,,,,,,,,,,,,,,,444.048285167024,,,,,,,,,,,,,,,,,,,,,,,,,,,,,445.578047625022,j,1,446.0069697499857,None,,,,,,,1,,,,2024-06-18_12h23.11.127,SceneCat_2023_2_key_resp,2024.1.1,None,2024-06-18 12h23.58.114316 +0200,
stimuli/img_bf8nx.png,j,,0,1,0,0,0,0,1,categorization,3,1,25,92,living_rooms,living_rooms,target,None,86.63414634146342,66.63414634146342,76.63414634146342,41,9,9,9,8,9,8,,,,,,,,,0,2,2,2,,,,,,,,,,,,,,,,,0,24,24,24,,,,,,,,,,,,,,,,,,,,,,,,,,,,,446.03913904202636,,,,,,,,,,,,,,,,,,,,,,,,,,,,,447.78557854203973,j,1,448.47469991701655,None,,,,,,,1,,,,2024-06-18_12h23.11.127,SceneCat_2023_2_key_resp,2024.1.1,None,2024-06-18 12h23.58.114316 +0200,
stimuli/img_qdln8.png,j,,0,1,0,0,0,0,1,categorization,3,1,26,93,living_rooms,living_rooms,target,None,85.51162790697674,67.86046511627907,76.68604651162791,43,9,9,9,9,9,9,,,,,,,,,0,2,2,2,,,,,,,,,,,,,,,,,0,25,25,25,,,,,,,,,,,,,,,,,,,,,,,,,,,,,448.4921812500106,,,,,,,,,,,,,,,,,,,,,,,,,,,,,449.9347646670067,j,1,450.5942569579929,None,,,,,,,1,,,,2024-06-18_12h23.11.127,SceneCat_2023_2_key_resp,2024.1.1,None,2024-06-18 12h23.58.114316 +0200,
stimuli/img_196rk.png,f,,0,1,0,0,0,0,1,memory,3,1,1,94,living_rooms,living_rooms,None,new,86.53488372093024,69.46511627906976,78,43,9,9,9,9,9,9,,,,,,,,,0,2,2,2,,,,,,,,,,,,,,,,,,,,,0,0,0,0,,,,,,,,,,,,,,,,,,,,,,,,,450.63006408303045,,,,,,,,,,,,,,,,,,,j,454.70695104199694,None,,,,,,,,,,,,,,,,,,,1,,,,2024-06-18_12h23.11.127,SceneCat_2023_2_key_resp,2024.1.1,None,2024-06-18 12h23.58.114316 +0200,
stimuli/img_rg4in.png,f,,0,1,0,0,0,0,1,memory,3,1,2,95,living_rooms,living_rooms,None,new,49.3695652173913,30.21739130434782,39.79347826086956,46,3,3,3,3,3,3,,,,,,,,,0,2,2,2,,,,,,,,,,,,,,,,,,,,,0,1,1,1,,,,,,,,,,,,,,,,,,,,,,,,,454.72694979200605,,,,,,,,,,,,,,,,,,,j,456.7307762920391,None,,,,,,,,,,,,,,,,,,,1,,,,2024-06-18_12h23.11.127,SceneCat_2023_2_key_resp,2024.1.1,None,2024-06-18 12h23.58.114316 +0200,
stimuli/img_x9w7o.png,f,,0,1,0,0,0,0,1,memory,3,1,3,96,living_rooms,living_rooms,None,new,92.38888888888889,72.94444444444444,82.66666666666666,36,10,10,10,10,10,10,,,,,,,,,0,2,2,2,,,,,,,,,,,,,,,,,,,,,0,2,2,2,,,,,,,,,,,,,,,,,,,,,,,,,456.748587833019,,,,,,,,,,,,,,,,,,,j,None,None,,,,,,,,,,,,,,,,,,,1,,,,2024-06-18_12h23.11.127,SceneCat_2023_2_key_resp,2024.1.1,None,2024-06-18 12h23.58.114316 +0200,
stimuli/img_njhlh.png,j,,0,1,0,0,0,0,1,memory,3,1,4,97,living_rooms,living_rooms,target,old,59.74418604651163,41.51162790697674,50.62790697674419,43,4,4,4,4,4,4,,,,,,,,,0,2,2,2,,,,,,,,,,,,,,,,,,,,,0,3,3,3,,,,,,,,,,,,,,,,,,,,,,,,,458.09801279200474,,,,,,,,,,,,,,,,,,,j,460.4123509170022,None,,,,,,,,,,,,,,,,,,,1,,,,2024-06-18_12h23.11.127,SceneCat_2023_2_key_resp,2024.1.1,None,2024-06-18 12h23.58.114316 +0200,
stimuli/img_r10cu.png,j,,0,1,0,0,0,0,1,memory,3,1,5,98,living_rooms,living_rooms,target,old,78.52380952380952,56.14285714285715,67.33333333333333,42,7,7,7,7,7,6,,,,,,,,,0,2,2,2,,,,,,,,,,,,,,,,,,,,,0,4,4,4,,,,,,,,,,,,,,,,,,,,,,,,,460.4231635420001,,,,,,,,,,,,,,,,,,,j,462.8209256250411,None,,,,,,,,,,,,,,,,,,,1,,,,2024-06-18_12h23.11.127,SceneCat_2023_2_key_resp,2024.1.1,None,2024-06-18 12h23.58.114316 +0200,
stimuli/img_9684y.png,j,,0,1,0,0,0,0,1,memory,3,1,6,99,living_rooms,living_rooms,target,old,77.95744680851064,56.70212765957447,67.32978723404256,47,7,7,7,6,7,7,,,,,,,,,0,2,2,2,,,,,,,,,,,,,,,,,,,,,0,5,5,5,,,,,,,,,,,,,,,,,,,,,,,,,462.8339789999882,,,,,,,,,,,,,,,,,,,j,464.5478165830136,None,,,,,,,,,,,,,,,,,,,1,,,,2024-06-18_12h23.11.127,SceneCat_2023_2_key_resp,2024.1.1,None,2024-06-18 12h23.58.114316 +0200,
stimuli/img_bbs77.png,f,,0,1,0,0,0,0,1,memory,3,1,7,100,living_rooms,living_rooms,None,new,31.64444444444445,21.26666666666667,26.45555555555556,45,2,2,2,2,2,2,,,,,,,,,0,2,2,2,,,,,,,,,,,,,,,,,,,,,0,6,6,6,,,,,,,,,,,,,,,,,,,,,,,,,464.5727989170118,,,,,,,,,,,,,,,,,,,j,466.01980758301215,None,,,,,,,,,,,,,,,,,,,1,,,,2024-06-18_12h23.11.127,SceneCat_2023_2_key_resp,2024.1.1,None,2024-06-18 12h23.58.114316 +0200,
stimuli/img_j73b6.png,j,,0,1,0,0,0,0,1,memory,3,1,8,101,living_rooms,living_rooms,target,old,21.5609756097561,19.90243902439024,20.73170731707317,41,1,1,1,2,1,2,,,,,,,,,0,2,2,2,,,,,,,,,,,,,,,,,,,,,0,7,7,7,,,,,,,,,,,,,,,,,,,,,,,,,466.065973083023,,,,,,,,,,,,,,,,,,,j,467.625835874991,None,,,,,,,,,,,,,,,,,,,1,,,,2024-06-18_12h23.11.127,SceneCat_2023_2_key_resp,2024.1.1,None,2024-06-18 12h23.58.114316 +0200,
stimuli/img_lzz3x.png,f,,0,1,0,0,0,0,1,memory,3,1,9,102,living_rooms,living_rooms,None,new,18.46341463414634,11.92682926829268,15.19512195121951,41,1,1,1,1,1,1,,,,,,,,,0,2,2,2,,,,,,,,,,,,,,,,,,,,,0,8,8,8,,,,,,,,,,,,,,,,,,,,,,,,,467.6402864170377,,,,,,,,,,,,,,,,,,,j,469.3760343330214,None,,,,,,,,,,,,,,,,,,,1,,,,2024-06-18_12h23.11.127,SceneCat_2023_2_key_resp,2024.1.1,None,2024-06-18 12h23.58.114316 +0200,
stimuli/img_di6f0.png,j,,0,1,0,0,0,0,1,memory,3,1,10,103,living_rooms,living_rooms,target,old,94.04347826086956,83.34782608695652,88.69565217391303,46,10,10,10,10,10,10,,,,,,,,,0,2,2,2,,,,,,,,,,,,,,,,,,,,,0,9,9,9,,,,,,,,,,,,,,,,,,,,,,,,,469.43460179201793,,,,,,,,,,,,,,,,,,,j,471.85057275003055,None,,,,,,,,,,,,,,,,,,,1,,,,2024-06-18_12h23.11.127,SceneCat_2023_2_key_resp,2024.1.1,None,2024-06-18 12h23.58.114316 +0200,
stimuli/img_6wne4.png,j,,0,1,0,0,0,0,1,memory,3,1,11,104,living_rooms,living_rooms,target,old,25.16279069767442,15,20.08139534883721,43,1,1,1,1,2,1,,,,,,,,,0,2,2,2,,,,,,,,,,,,,,,,,,,,,0,10,10,10,,,,,,,,,,,,,,,,,,,,,,,,,471.87309166701743,,,,,,,,,,,,,,,,,,,j,473.44845825002994,None,,,,,,,,,,,,,,,,,,,1,,,,2024-06-18_12h23.11.127,SceneCat_2023_2_key_resp,2024.1.1,None,2024-06-18 12h23.58.114316 +0200,
stimuli/img_vg73h.png,j,,0,1,0,0,0,0,1,memory,3,1,12,105,living_rooms,living_rooms,target,old,87.7,72.4,80.05000000000001,50,10,10,10,10,10,10,,,,,,,,,0,2,2,2,,,,,,,,,,,,,,,,,,,,,0,11,11,11,,,,,,,,,,,,,,,,,,,,,,,,,473.54671458300436,,,,,,,,,,,,,,,,,,,j,474.53001091699116,None,,,,,,,,,,,,,,,,,,,1,,,,2024-06-18_12h23.11.127,SceneCat_2023_2_key_resp,2024.1.1,None,2024-06-18 12h23.58.114316 +0200,
stimuli/img_jpjeg.png,f,,0,1,0,0,0,0,1,memory,3,1,13,106,living_rooms,living_rooms,None,new,90.90697674418605,74.3953488372093,82.65116279069767,43,10,10,10,10,10,10,,,,,,,,,0,2,2,2,,,,,,,,,,,,,,,,,,,,,0,12,12,12,,,,,,,,,,,,,,,,,,,,,,,,,474.7115084170364,,,,,,,,,,,,,,,,,,,j,476.67484520800645,None,,,,,,,,,,,,,,,,,,,1,,,,2024-06-18_12h23.11.127,SceneCat_2023_2_key_resp,2024.1.1,None,2024-06-18 12h23.58.114316 +0200,
stimuli/img_eiu3c.png,f,,0,1,0,0,0,0,1,memory,3,1,14,107,living_rooms,living_rooms,None,new,65.1590909090909,46.22727272727273,55.69318181818181,44,5,5,5,5,5,5,,,,,,,,,0,2,2,2,,,,,,,,,,,,,,,,,,,,,0,13,13,13,,,,,,,,,,,,,,,,,,,,,,,,,476.70702487503877,,,,,,,,,,,,,,,,,,,j,478.45275558298454,None,,,,,,,,,,,,,,,,,,,1,,,,2024-06-18_12h23.11.127,SceneCat_2023_2_key_resp,2024.1.1,None,2024-06-18 12h23.58.114316 +0200,
stimuli/img_il020.png,f,,0,1,0,0,0,0,1,memory,3,1,15,108,living_rooms,living_rooms,None,new,18.85416666666667,16.16666666666667,17.51041666666667,48,1,1,1,1,1,1,,,,,,,,,0,2,2,2,,,,,,,,,,,,,,,,,,,,,0,14,14,14,,,,,,,,,,,,,,,,,,,,,,,,,478.473436875036,,,,,,,,,,,,,,,,,,,j,479.93803066702094,None,,,,,,,,,,,,,,,,,,,1,,,,2024-06-18_12h23.11.127,SceneCat_2023_2_key_resp,2024.1.1,None,2024-06-18 12h23.58.114316 +0200,
stimuli/img_sx68r.png,j,,0,1,0,0,0,0,1,memory,3,1,16,109,living_rooms,living_rooms,target,old,54,33.2051282051282,43.6025641025641,39,3,3,3,3,4,3,,,,,,,,,0,2,2,2,,,,,,,,,,,,,,,,,,,,,0,15,15,15,,,,,,,,,,,,,,,,,,,,,,,,,479.9575968750287,,,,,,,,,,,,,,,,,,,j,482.2261893330142,None,,,,,,,,,,,,,,,,,,,1,,,,2024-06-18_12h23.11.127,SceneCat_2023_2_key_resp,2024.1.1,None,2024-06-18 12h23.58.114316 +0200,
stimuli/img_4o8l0.png,f,,0,1,0,0,0,0,1,memory,3,1,17,110,living_rooms,living_rooms,None,new,46.02173913043478,31.45652173913043,38.73913043478261,46,3,3,3,3,3,3,,,,,,,,,0,2,2,2,,,,,,,,,,,,,,,,,,,,,0,16,16,16,,,,,,,,,,,,,,,,,,,,,,,,,482.2453914170037,,,,,,,,,,,,,,,,,,,j,484.83832849998726,None,,,,,,,,,,,,,,,,,,,1,,,,2024-06-18_12h23.11.127,SceneCat_2023_2_key_resp,2024.1.1,None,2024-06-18 12h23.58.114316 +0200,
stimuli/img_pey7u.png,f,,0,1,0,0,0,0,1,memory,3,1,18,111,living_rooms,living_rooms,None,new,30.34883720930232,20.34883720930232,25.34883720930232,43,1,2,2,2,2,2,,,,,,,,,0,2,2,2,,,,,,,,,,,,,,,,,,,,,0,17,17,17,,,,,,,,,,,,,,,,,,,,,,,,,484.8507504170411,,,,,,,,,,,,,,,,,,,j,486.4432964170119,None,,,,,,,,,,,,,,,,,,,1,,,,2024-06-18_12h23.11.127,SceneCat_2023_2_key_resp,2024.1.1,None,2024-06-18 12h23.58.114316 +0200,
stimuli/img_mdh76.png,j,,0,1,0,0,0,0,1,memory,3,1,19,112,living_rooms,living_rooms,target,old,37.31914893617022,25.12765957446809,31.22340425531915,47,2,2,2,2,3,2,,,,,,,,,0,2,2,2,,,,,,,,,,,,,,,,,,,,,0,18,18,18,,,,,,,,,,,,,,,,,,,,,,,,,486.4568498749868,,,,,,,,,,,,,,,,,,,j,488.5252853750135,None,,,,,,,,,,,,,,,,,,,1,,,,2024-06-18_12h23.11.127,SceneCat_2023_2_key_resp,2024.1.1,None,2024-06-18 12h23.58.114316 +0200,
stimuli/img_rru0v.png,f,,0,1,0,0,0,0,1,memory,3,1,20,113,living_rooms,living_rooms,None,new,56.45238095238095,39.42857142857143,47.94047619047619,42,4,4,4,4,4,4,,,,,,,,,0,2,2,2,,,,,,,,,,,,,,,,,,,,,0,19,19,19,,,,,,,,,,,,,,,,,,,,,,,,,488.5409999580006,,,,,,,,,,,,,,,,,,,j,490.26433825003915,None,,,,,,,,,,,,,,,,,,,1,,,,2024-06-18_12h23.11.127,SceneCat_2023_2_key_resp,2024.1.1,None,2024-06-18 12h23.58.114316 +0200,
stimuli/img_5tr4v.png,f,,0,1,0,0,0,0,1,memory,3,1,21,114,living_rooms,living_rooms,None,new,56.86046511627907,39.3953488372093,48.12790697674419,43,4,4,4,4,4,4,,,,,,,,,0,2,2,2,,,,,,,,,,,,,,,,,,,,,0,20,20,20,,,,,,,,,,,,,,,,,,,,,,,,,490.2909277920262,,,,,,,,,,,,,,,,,,,j,491.89737129199784,None,,,,,,,,,,,,,,,,,,,1,,,,2024-06-18_12h23.11.127,SceneCat_2023_2_key_resp,2024.1.1,None,2024-06-18 12h23.58.114316 +0200,
stimuli/img_iudc4.png,f,,0,1,0,0,0,0,1,memory,3,1,22,115,living_rooms,living_rooms,None,new,73.625,52.275,62.95,40,6,6,6,6,6,6,,,,,,,,,0,2,2,2,,,,,,,,,,,,,,,,,,,,,0,21,21,21,,,,,,,,,,,,,,,,,,,,,,,,,492.062105583027,,,,,,,,,,,,,,,,,,,j,493.57058929203777,None,,,,,,,,,,,,,,,,,,,1,,,,2024-06-18_12h23.11.127,SceneCat_2023_2_key_resp,2024.1.1,None,2024-06-18 12h23.58.114316 +0200,
stimuli/img_bg264.png,j,,0,1,0,0,0,0,1,memory,3,1,23,116,living_rooms,living_rooms,target,old,87.9047619047619,71.5,79.70238095238095,42,10,10,10,9,10,9,,,,,,,,,0,2,2,2,,,,,,,,,,,,,,,,,,,,,0,22,22,22,,,,,,,,,,,,,,,,,,,,,,,,,493.5845614580321,,,,,,,,,,,,,,,,,,,j,494.905358833028,None,,,,,,,,,,,,,,,,,,,1,,,,2024-06-18_12h23.11.127,SceneCat_2023_2_key_resp,2024.1.1,None,2024-06-18 12h23.58.114316 +0200,
stimuli/catch_09_supermarket.jpg,f,,0,1,0,0,0,0,1,memory,3,1,24,117,living_rooms,None,None,catch,None,None,None,None,None,None,None,None,None,None,,,,,,,,,0,2,2,2,,,,,,,,,,,,,,,,,,,,,0,23,23,23,,,,,,,,,,,,,,,,,,,,,,,,,494.91741774999537,,,,,,,,,,,,,,,,,,,j,496.9187709580292,None,,,,,,,,,,,,,,,,,,,1,,,,2024-06-18_12h23.11.127,SceneCat_2023_2_key_resp,2024.1.1,None,2024-06-18 12h23.58.114316 +0200,
stimuli/img_vnxft.png,j,,0,1,0,0,0,0,1,memory,3,1,25,118,living_rooms,living_rooms,target,old,53.22727272727273,34.84090909090909,44.03409090909091,44,3,3,3,4,3,4,,,,,,,,,0,2,2,2,,,,,,,,,,,,,,,,,,,,,0,24,24,24,,,,,,,,,,,,,,,,,,,,,,,,,496.94098095799563,,,,,,,,,,,,,,,,,,,j,498.54362712503644,None,,,,,,,,,,,,,,,,,,,1,,,,2024-06-18_12h23.11.127,SceneCat_2023_2_key_resp,2024.1.1,None,2024-06-18 12h23.58.114316 +0200,
stimuli/img_5nlnv.png,f,,0,1,0,0,0,0,1,memory,3,1,26,119,living_rooms,living_rooms,None,new,86.1219512195122,69.1951219512195,77.65853658536585,41,9,9,9,9,9,9,,,,,,,,,0,2,2,2,,,,,,,,,,,,,,,,,,,,,0,25,25,25,,,,,,,,,,,,,,,,,,,,,,,,,498.6238865000196,,,,,,,,,,,,,,,,,,,j,500.77552804199513,None,,,,,,,,,,,,,,,,,,,1,,,,2024-06-18_12h23.11.127,SceneCat_2023_2_key_resp,2024.1.1,None,2024-06-18 12h23.58.114316 +0200,
stimuli/img_kq9s9.png,j,,0,1,0,0,0,0,1,memory,3,1,27,120,living_rooms,living_rooms,target,old,62.30232558139535,39.97674418604651,51.13953488372093,43,4,4,4,5,5,4,,,,,,,,,0,2,2,2,,,,,,,,,,,,,,,,,,,,,0,26,26,26,,,,,,,,,,,,,,,,,,,,,,,,,500.7960826670169,,,,,,,,,,,,,,,,,,,j,502.6642930000089,None,,,,,,,,,,,,,,,,,,,1,,,,2024-06-18_12h23.11.127,SceneCat_2023_2_key_resp,2024.1.1,None,2024-06-18 12h23.58.114316 +0200,
stimuli/img_xbtev.png,j,,0,1,0,0,0,0,1,memory,3,1,28,121,living_rooms,living_rooms,target,old,13.68181818181818,8.568181818181818,11.125,44,1,1,1,1,1,1,,,,,,,,,0,2,2,2,,,,,,,,,,,,,,,,,,,,,0,27,27,27,,,,,,,,,,,,,,,,,,,,,,,,,502.6748157500406,,,,,,,,,,,,,,,,,,,j,504.95378891698783,None,,,,,,,,,,,,,,,,,,,1,,,,2024-06-18_12h23.11.127,SceneCat_2023_2_key_resp,2024.1.1,None,2024-06-18 12h23.58.114316 +0200,
stimuli/img_37hgm.png,f,,0,1,0,0,0,0,1,memory,3,1,29,122,living_rooms,living_rooms,None,new,70.95454545454545,54.77272727272727,62.86363636363636,44,6,6,6,6,6,6,,,,,,,,,0,2,2,2,,,,,,,,,,,,,,,,,,,,,0,28,28,28,,,,,,,,,,,,,,,,,,,,,,,,,504.9742459580302,,,,,,,,,,,,,,,,,,,j,506.7455626250012,None,,,,,,,,,,,,,,,,,,,1,,,,2024-06-18_12h23.11.127,SceneCat_2023_2_key_resp,2024.1.1,None,2024-06-18 12h23.58.114316 +0200,
stimuli/img_tbs4n.png,f,,0,1,0,0,0,0,1,memory,3,1,30,123,living_rooms,living_rooms,None,new,78.95744680851064,58.97872340425532,68.96808510638297,47,7,7,7,7,7,7,,,,,,,,,0,2,2,2,,,,,,,,,,,,,,,,,,,,,0,29,29,29,,,,,,,,,,,,,,,,,,,,,,,,,506.7628709580167,,,,,,,,,,,,,,,,,,,j,508.4791522080195,None,,,,,,,,,,,,,,,,,,,1,,,,2024-06-18_12h23.11.127,SceneCat_2023_2_key_resp,2024.1.1,None,2024-06-18 12h23.58.114316 +0200,
stimuli/img_2qhro.png,j,,0,1,0,0,0,0,1,memory,3,1,31,124,living_rooms,living_rooms,target,old,81.73809523809524,62.73809523809524,72.23809523809524,42,8,8,8,8,8,8,,,,,,,,,0,2,2,2,,,,,,,,,,,,,,,,,,,,,0,30,30,30,,,,,,,,,,,,,,,,,,,,,,,,,508.67989679198945,,,,,,,,,,,,,,,,,,,j,510.440018000023,None,,,,,,,,,,,,,,,,,,,1,,,,2024-06-18_12h23.11.127,SceneCat_2023_2_key_resp,2024.1.1,None,2024-06-18 12h23.58.114316 +0200,
stimuli/img_bf8nx.png,j,,0,1,0,0,0,0,1,memory,3,1,32,125,living_rooms,living_rooms,target,old,86.63414634146342,66.63414634146342,76.63414634146342,41,9,9,9,8,9,8,,,,,,,,,0,2,2,2,,,,,,,,,,,,,,,,,,,,,0,31,31,31,,,,,,,,,,,,,,,,,,,,,,,,,510.451819000009,,,,,,,,,,,,,,,,,,,j,513.5549185000127,None,,,,,,,,,,,,,,,,,,,1,,,,2024-06-18_12h23.11.127,SceneCat_2023_2_key_resp,2024.1.1,None,2024-06-18 12h23.58.114316 +0200,
stimuli/img_tujn3.png,j,,0,1,0,0,0,0,1,memory,3,1,33,126,living_rooms,living_rooms,target,old,81.4090909090909,62.52272727272727,71.9659090909091,44,8,8,8,7,8,7,,,,,,,,,0,2,2,2,,,,,,,,,,,,,,,,,,,,,0,32,32,32,,,,,,,,,,,,,,,,,,,,,,,,,513.5750570420059,,,,,,,,,,,,,,,,,,,j,515.8603892500396,None,,,,,,,,,,,,,,,,,,,1,,,,2024-06-18_12h23.11.127,SceneCat_2023_2_key_resp,2024.1.1,None,2024-06-18 12h23.58.114316 +0200,
stimuli/img_s2zoe.png,f,,0,1,0,0,0,0,1,memory,3,1,34,127,living_rooms,living_rooms,None,new,64.71428571428571,44.90476190476191,54.80952380952381,42,5,5,5,5,5,5,,,,,,,,,0,2,2,2,,,,,,,,,,,,,,,,,,,,,0,33,33,33,,,,,,,,,,,,,,,,,,,,,,,,,515.8748037079931,,,,,,,,,,,,,,,,,,,j,517.8290004170267,None,,,,,,,,,,,,,,,,,,,1,,,,2024-06-18_12h23.11.127,SceneCat_2023_2_key_resp,2024.1.1,None,2024-06-18 12h23.58.114316 +0200,
stimuli/img_tv8e2.png,j,,0,1,0,0,0,0,1,memory,3,1,35,128,living_rooms,living_rooms,target,old,71.93023255813954,50.25581395348837,61.09302325581395,43,6,6,6,6,6,6,,,,,,,,,0,2,2,2,,,,,,,,,,,,,,,,,,,,,0,34,34,34,,,,,,,,,,,,,,,,,,,,,,,,,517.841782750038,,,,,,,,,,,,,,,,,,,j,523.7292902920162,None,,,,,,,,,,,,,,,,,,,1,,,,2024-06-18_12h23.11.127,SceneCat_2023_2_key_resp,2024.1.1,None,2024-06-18 12h23.58.114316 +0200,
stimuli/img_3ze38.png,j,,0,1,0,0,0,0,1,memory,3,1,36,129,living_rooms,living_rooms,target,old,35.53191489361702,28.4468085106383,31.98936170212766,47,2,2,2,3,2,3,,,,,,,,,0,2,2,2,,,,,,,,,,,,,,,,,,,,,0,35,35,35,,,,,,,,,,,,,,,,,,,,,,,,,523.741242500022,,,,,,,,,,,,,,,,,,,j,535.3930826249998,None,,,,,,,,,,,,,,,,,,,1,,,,2024-06-18_12h23.11.127,SceneCat_2023_2_key_resp,2024.1.1,None,2024-06-18 12h23.58.114316 +0200,
stimuli/img_bj99b.png,f,,0,1,0,0,0,0,1,memory,3,1,37,130,living_rooms,living_rooms,None,new,82.79069767441861,65.46511627906976,74.12790697674419,43,8,8,8,8,8,8,,,,,,,,,0,2,2,2,,,,,,,,,,,,,,,,,,,,,0,36,36,36,,,,,,,,,,,,,,,,,,,,,,,,,535.408786792017,,,,,,,,,,,,,,,,,,,j,536.6443128749961,None,,,,,,,,,,,,,,,,,,,1,,,,2024-06-18_12h23.11.127,SceneCat_2023_2_key_resp,2024.1.1,None,2024-06-18 12h23.58.114316 +0200,
stimuli/img_9oofc.png,f,,0,1,0,0,0,0,1,memory,3,1,38,131,living_rooms,living_rooms,None,new,82.47619047619048,65.5,73.98809523809524,42,8,8,8,8,8,8,,,,,,,,,0,2,2,2,,,,,,,,,,,,,,,,,,,,,0,37,37,37,,,,,,,,,,,,,,,,,,,,,,,,,536.742316125019,,,,,,,,,,,,,,,,,,,j,538.8678299169987,None,,,,,,,,,,,,,,,,,,,1,,,,2024-06-18_12h23.11.127,SceneCat_2023_2_key_resp,2024.1.1,None,2024-06-18 12h23.58.114316 +0200,
stimuli/img_qz292.png,f,,0,1,0,0,0,0,1,memory,3,1,39,132,living_rooms,living_rooms,None,new,78.26666666666667,59.13333333333333,68.7,45,7,7,7,7,7,7,,,,,,,,,0,2,2,2,,,,,,,,,,,,,,,,,,,,,0,38,38,38,,,,,,,,,,,,,,,,,,,,,,,,,538.8811464580358,,,,,,,,,,,,,,,,,,,j,540.9315947919968,None,,,,,,,,,,,,,,,,,,,1,,,,2024-06-18_12h23.11.127,SceneCat_2023_2_key_resp,2024.1.1,None,2024-06-18 12h23.58.114316 +0200,
stimuli/img_qdln8.png,j,,0,1,0,0,0,0,1,memory,3,1,40,133,living_rooms,living_rooms,target,old,85.51162790697674,67.86046511627907,76.68604651162791,43,9,9,9,9,9,9,,,,,,,,,0,2,2,2,,,,,,,,,,,,,,,,,,,,,0,39,39,39,,,,,,,,,,,,,,,,,,,,,,,,,540.9477977920324,,,,,,,,,,,,,,,,,,,j,542.5671004169853,None,,,,,,,,,,,,,,,,,,,1,,,,2024-06-18_12h23.11.127,SceneCat_2023_2_key_resp,2024.1.1,None,2024-06-18 12h23.58.114316 +0200,
stimuli/img_99exx.png,j,,0,1,0,0,0,0,1,memory,3,1,41,134,living_rooms,living_rooms,target,old,70.02272727272727,51.88636363636363,60.95454545454545,44,6,6,6,5,5,6,,,,,,,,,0,2,2,2,,,,,,,,,,,,,,,,,,,,,0,40,40,40,,,,,,,,,,,,,,,,,,,,,,,,,542.5925306670251,,,,,,,,,,,,,,,,,,,j,544.2627559580142,None,,,,,,,,,,,,,,,,,,,1,,,,2024-06-18_12h23.11.127,SceneCat_2023_2_key_resp,2024.1.1,None,2024-06-18 12h23.58.114316 +0200,
,,,0,1,0,0,0,0,,,,,,,,,,,,,,,,,,,,,,,,,,,,,0,2,2,2,,,,,,,,,,,,,,,,,,,,,,,,,,,,,,,,,,,,,,,,,,,,,,,,,,,,,,,,,,,,,,,,,,,,,,,,,,,,,,,,,,,,,,,,,1,,,,2024-06-18_12h23.11.127,SceneCat_2023_2_key_resp,2024.1.1,None,2024-06-18 12h23.58.114316 +0200,
stimuli/img_koooi.png,f,,1,0,0,0,0,0,1,categorization,4,1,1,1,bedrooms,living_rooms,distractor,None,63.95454545454545,44.56818181818182,54.26136363636364,44,5,5,5,5,5,5,,,,,,,,,0,3,3,3,,,,,,,,,,,,,,,,,,,,,,,,,,,,,,,,,0,0,0,0,,,,,,,,,,,,,546.3047455830383,,,,,,,,,,,,,549.550250417029,j,0,None,None,,,,,,,,,,,,,,,,,,546.6092356250156,546.6092356250156,,,,1,,,,2024-06-18_12h23.11.127,SceneCat_2023_2_key_resp,2024.1.1,None,2024-06-18 12h23.58.114316 +0200,
stimuli/img_f4jxo.png,j,,1,0,0,0,0,0,1,categorization,4,1,2,2,bedrooms,bedrooms,target,None,82.91666666666667,65.52777777777777,74.22222222222223,36,8,8,8,8,8,8,,,,,,,,,0,3,3,3,,,,,,,,,,,,,,,,,,,,,,,,,,,,,,,,,0,1,1,1,,,,,,,,,,,,,550.0695697080228,,,,,,,,,,,,,551.9485244579846,j,1,552.4140835829894,None,,,,,,,,,,,,,,,,,,,,,,,1,,,,2024-06-18_12h23.11.127,SceneCat_2023_2_key_resp,2024.1.1,None,2024-06-18 12h23.58.114316 +0200,
