stimulus,correct_answer,correct_1,living_room_1,kitchen_1,living_room_2,bedroom_1,kitchen_2,bedroom_2,subject_id,task,block_total_cat,block_scene_cat,trial_block_cat,trial_total_cat,target_cat,category,cond_cat,conceptual,perceptual,n,typicality,ranked,typi_bin,cat_training_trials.thisRepN,cat_training_trials.thisTrialN,cat_training_trials.thisN,cat_training_trials.thisIndex,memo_training_trials.thisRepN,memo_training_trials.thisTrialN,memo_training_trials.thisN,memo_training_trials.thisIndex,categorization_trials.thisRepN,categorization_trials.thisTrialN,categorization_trials.thisN,categorization_trials.thisIndex,kitchen_a_categorization_trials.thisRepN,kitchen_a_categorization_trials.thisTrialN,kitchen_a_categorization_trials.thisN,kitchen_a_categorization_trials.thisIndex,kitchen_a_memotest.thisRepN,kitchen_a_memotest.thisTrialN,kitchen_a_memotest.thisN,kitchen_a_memotest.thisIndex,kitchen_b_categorization_trials.thisRepN,kitchen_b_categorization_trials.thisTrialN,kitchen_b_categorization_trials.thisN,kitchen_b_categorization_trials.thisIndex,kitchen_b_memotest.thisRepN,kitchen_b_memotest.thisTrialN,kitchen_b_memotest.thisN,kitchen_b_memotest.thisIndex,living_a_categorization_trials.thisRepN,living_a_categorization_trials.thisTrialN,living_a_categorization_trials.thisN,living_a_categorization_trials.thisIndex,living_a_memotest.thisRepN,living_a_memotest.thisTrialN,living_a_memotest.thisN,living_a_memotest.thisIndex,cond_mem,trial_total_mem,thisRow.t,notes,instructions_cat_2.started,instructions_cat_2.stopped,cat_training_key.keys,cat_training_key.corr,cat_training_key.rt,cat_training_key.duration,memo_training_slider_key_resp.keys,memo_training_slider_key_resp.rt,memo_training_slider_key_resp.duration,living_a_text_2.started,living_a_block_no.started,living_picture_image.started,living_picture_image.stopped,living_picture_resp.keys,living_picture_resp.corr,living_picture_resp.rt,living_picture_resp.duration,participant,Alter,Geschlecht,Haendigkeit,date,expName,psychopyVersion,frameRate,expStart,
,,,,,,,,,,,,,,,,,,,,,,,,,,,,,,,,,,,,,,,,,,,,,,,,,,,,,,,,,,,,,,,,,,,,,,,,,,,,,,,,,1,,,,2024-05-15_16h45.40.108,SceneCat_2023_2_key_resp,2024.1.1,None,2024-05-15 16h45.50.189327 +0200,
,,,,,,,,,,,,,,,,,,,,,,,,,,,,,,,,,,,,,,,,,,,,,,,,,,,,,,,,,,,,,,,,,,,,,,,,,,,,,,,,,1,,,,2024-05-15_16h45.40.108,SceneCat_2023_2_key_resp,2024.1.1,None,2024-05-15 16h45.50.189327 +0200,
,,,,,,,,,,,,,,,,,,,,,,,,,,,,,,,,,,,,,,,,,,,,,,,,,,,,,,,,,,,,,,,,,,,,,,,,,,,,,,,,,1,,,,2024-05-15_16h45.40.108,SceneCat_2023_2_key_resp,2024.1.1,None,2024-05-15 16h45.50.189327 +0200,
,,,,,,,,,,,,,,,,,,,,,,,,,,,,,,,,,,,,,,,,,,,,,,,,,,,,,,,,,,,,,,,,,,,,,,,,,,,,,,,,,1,,,,2024-05-15_16h45.40.108,SceneCat_2023_2_key_resp,2024.1.1,None,2024-05-15 16h45.50.189327 +0200,
,,,,,,,,,,,,,,,,,,,,,,,,,,,,,,,,,,,,,,,,,,,,,,,,,,,,,,,,,,,,,,,,,,,,,,,,,,,,,,,,,1,,,,2024-05-15_16h45.40.108,SceneCat_2023_2_key_resp,2024.1.1,None,2024-05-15 16h45.50.189327 +0200,
,,,,,,,,,,,,,,,,,,,,,,,,,,,,,,,,,,,,,,,,,,,,,,,,,,,,,,,,,,,,,,,,79.00594020800008,82.2661091670002,,,,,,,,,,,,,,,,1,,,,2024-05-15_16h45.40.108,SceneCat_2023_2_key_resp,2024.1.1,None,2024-05-15 16h45.50.189327 +0200,
,,,,,,,,,,,,,,,,,,,,,,,,,,,,,,,,,,,,,,,,,,,,,,,,,,,,,,,,,,,,,,,,,,,,,,,,,,,,,,,,,1,,,,2024-05-15_16h45.40.108,SceneCat_2023_2_key_resp,2024.1.1,None,2024-05-15 16h45.50.189327 +0200,
stimuli/khfp.jpg,f,,,,,,,,,,,,,,,,,,,,,,,0,0,0,8,,,,,,,,,,,,,,,,,,,,,,,,,,,,,,,,,,,84.79574762500033,,,,j,0,88.190288625,None,,,,,,,,,,,,1,,,,2024-05-15_16h45.40.108,SceneCat_2023_2_key_resp,2024.1.1,None,2024-05-15 16h45.50.189327 +0200,
stimuli/lituryeyxcfvghjk.jpg,f,,,,,,,,,,,,,,,,,,,,,,,0,1,1,7,,,,,,,,,,,,,,,,,,,,,,,,,,,,,,,,,,,89.20430149999993,,,,j,0,92.005479208,None,,,,,,,,,,,,1,,,,2024-05-15_16h45.40.108,SceneCat_2023_2_key_resp,2024.1.1,None,2024-05-15 16h45.50.189327 +0200,
stimuli/ihnbvcfgd.jpg,f,,,,,,,,,,,,,,,,,,,,,,,0,2,2,6,,,,,,,,,,,,,,,,,,,,,,,,,,,,,,,,,,,93.02110320800011,,,,j,0,96.07969145800007,None,,,,,,,,,,,,1,,,,2024-05-15_16h45.40.108,SceneCat_2023_2_key_resp,2024.1.1,None,2024-05-15 16h45.50.189327 +0200,
stimuli/gfvbnbg.jpg,j,,,,,,,,,,,,,,,,,,,,,,,0,3,3,13,,,,,,,,,,,,,,,,,,,,,,,,,,,,,,,,,,,97.08850237500019,,,,f,0,99.03559387500036,None,,,,,,,,,,,,1,,,,2024-05-15_16h45.40.108,SceneCat_2023_2_key_resp,2024.1.1,None,2024-05-15 16h45.50.189327 +0200,
stimuli/ztfcvbnhg.jpg,f,,,,,,,,,,,,,,,,,,,,,,,0,4,4,0,,,,,,,,,,,,,,,,,,,,,,,,,,,,,,,,,,,100.03905962499994,,,,j,0,102.53875862500036,None,,,,,,,,,,,,1,,,,2024-05-15_16h45.40.108,SceneCat_2023_2_key_resp,2024.1.1,None,2024-05-15 16h45.50.189327 +0200,
stimuli/lkjhgfdxsdfghj.jpg,f,,,,,,,,,,,,,,,,,,,,,,,0,5,5,3,,,,,,,,,,,,,,,,,,,,,,,,,,,,,,,,,,,103.53846016700027,,,,f,1,106.54600958300034,None,,,,,,,,,,,,1,,,,2024-05-15_16h45.40.108,SceneCat_2023_2_key_resp,2024.1.1,None,2024-05-15 16h45.50.189327 +0200,
stimuli/hhhh.jpg,f,,,,,,,,,,,,,,,,,,,,,,,0,6,6,9,,,,,,,,,,,,,,,,,,,,,,,,,,,,,,,,,,,107.55538920800018,,,,f,1,110.11387087499998,None,,,,,,,,,,,,1,,,,2024-05-15_16h45.40.108,SceneCat_2023_2_key_resp,2024.1.1,None,2024-05-15 16h45.50.189327 +0200,
stimuli/oelkjhgfcfghjk.jpg,f,,,,,,,,,,,,,,,,,,,,,,,0,7,7,2,,,,,,,,,,,,,,,,,,,,,,,,,,,,,,,,,,,111.12165116699998,,,,f,1,113.51831866700013,None,,,,,,,,,,,,1,,,,2024-05-15_16h45.40.108,SceneCat_2023_2_key_resp,2024.1.1,None,2024-05-15 16h45.50.189327 +0200,
stimuli/asdfghertghvgh.jpg,f,,,,,,,,,,,,,,,,,,,,,,,0,8,8,10,,,,,,,,,,,,,,,,,,,,,,,,,,,,,,,,,,,114.52194112500001,,,,f,1,116.93384429200023,None,,,,,,,,,,,,1,,,,2024-05-15_16h45.40.108,SceneCat_2023_2_key_resp,2024.1.1,None,2024-05-15 16h45.50.189327 +0200,
stimuli/uhnnfhj.jpg,j,,,,,,,,,,,,,,,,,,,,,,,0,9,9,12,,,,,,,,,,,,,,,,,,,,,,,,,,,,,,,,,,,117.9390453750002,,,,j,1,120.22031074999995,None,,,,,,,,,,,,1,,,,2024-05-15_16h45.40.108,SceneCat_2023_2_key_resp,2024.1.1,None,2024-05-15 16h45.50.189327 +0200,
stimuli/fvbjgv.jpg,f,,,,,,,,,,,,,,,,,,,,,,,0,10,10,1,,,,,,,,,,,,,,,,,,,,,,,,,,,,,,,,,,,121.22272970800032,,,,f,1,124.34634291700013,None,,,,,,,,,,,,1,,,,2024-05-15_16h45.40.108,SceneCat_2023_2_key_resp,2024.1.1,None,2024-05-15 16h45.50.189327 +0200,
stimuli/erthjnbvcfg.jpg,f,,,,,,,,,,,,,,,,,,,,,,,0,11,11,11,,,,,,,,,,,,,,,,,,,,,,,,,,,,,,,,,,,125.35583670799997,,,,f,1,128.03425245800008,None,,,,,,,,,,,,1,,,,2024-05-15_16h45.40.108,SceneCat_2023_2_key_resp,2024.1.1,None,2024-05-15 16h45.50.189327 +0200,
stimuli/sdfghjklkjbv.jpg,f,,,,,,,,,,,,,,,,,,,,,,,0,12,12,5,,,,,,,,,,,,,,,,,,,,,,,,,,,,,,,,,,,129.0389717500002,,,,f,1,132.11176783300016,None,,,,,,,,,,,,1,,,,2024-05-15_16h45.40.108,SceneCat_2023_2_key_resp,2024.1.1,None,2024-05-15 16h45.50.189327 +0200,
stimuli/zgfdetz.jpg,j,,,,,,,,,,,,,,,,,,,,,,,0,13,13,15,,,,,,,,,,,,,,,,,,,,,,,,,,,,,,,,,,,133.1221082080001,,,,j,1,135.22041129200034,None,,,,,,,,,,,,1,,,,2024-05-15_16h45.40.108,SceneCat_2023_2_key_resp,2024.1.1,None,2024-05-15 16h45.50.189327 +0200,
stimuli/asdfghjkloelkjhg.jpg,f,,,,,,,,,,,,,,,,,,,,,,,0,14,14,4,,,,,,,,,,,,,,,,,,,,,,,,,,,,,,,,,,,136.22325950000004,,,,f,1,138.22491679199993,None,,,,,,,,,,,,1,,,,2024-05-15_16h45.40.108,SceneCat_2023_2_key_resp,2024.1.1,None,2024-05-15 16h45.50.189327 +0200,
stimuli/uzgfvbnh.jpg,j,,,,,,,,,,,,,,,,,,,,,,,0,15,15,14,,,,,,,,,,,,,,,,,,,,,,,,,,,,,,,,,,,139.23963637499992,,,,j,1,141.65117575000022,None,,,,,,,,,,,,1,,,,2024-05-15_16h45.40.108,SceneCat_2023_2_key_resp,2024.1.1,None,2024-05-15 16h45.50.189327 +0200,
,,,,,,,,,,,,,,,,,,,,,,,,,,,,,,,,,,,,,,,,,,,,,,,,,,,,,,,,,,,,,,,,,,,,,,,,,,,,,,,,,1,,,,2024-05-15_16h45.40.108,SceneCat_2023_2_key_resp,2024.1.1,None,2024-05-15 16h45.50.189327 +0200,
stimuli/ihnbvcfgd.jpg,,1,,,,,,,,,,,,,,,,,,,,,,,,,,0,0,0,6,,,,,,,,,,,,,,,,,,,,,,,,,,,,,,,153.13909624999997,,,,,,,,d,157.52775387500014,None,,,,,,,,,1,,,,2024-05-15_16h45.40.108,SceneCat_2023_2_key_resp,2024.1.1,None,2024-05-15 16h45.50.189327 +0200,
stimuli/uhnbgh.jpg,,3,,,,,,,,,,,,,,,,,,,,,,,,,,0,1,1,15,,,,,,,,,,,,,,,,,,,,,,,,,,,,,,,159.02242337500002,,,,,,,,f,162.90616020800007,None,,,,,,,,,1,,,,2024-05-15_16h45.40.108,SceneCat_2023_2_key_resp,2024.1.1,None,2024-05-15 16h45.50.189327 +0200,
stimuli/asdfgh.jpg,,3,,,,,,,,,,,,,,,,,,,,,,,,,,0,2,2,12,,,,,,,,,,,,,,,,,,,,,,,,,,,,,,,164.40585579200024,,,,,,,,d,169.0773172080003,None,,,,,,,,,1,,,,2024-05-15_16h45.40.108,SceneCat_2023_2_key_resp,2024.1.1,None,2024-05-15 16h45.50.189327 +0200,
stimuli/ztfcvbnhg.jpg,,1,,,,,,,,,,,,,,,,,,,,,,,,,,0,3,3,0,,,,,,,,,,,,,,,,,,,,,,,,,,,,,,,170.5730372920002,,,,,,,,k,174.50244079200002,None,,,,,,,,,1,,,,2024-05-15_16h45.40.108,SceneCat_2023_2_key_resp,2024.1.1,None,2024-05-15 16h45.50.189327 +0200,
stimuli/hhhh.jpg,,1,,,,,,,,,,,,,,,,,,,,,,,,,,0,4,4,9,,,,,,,,,,,,,,,,,,,,,,,,,,,,,,,176.00717387500026,,,,,,,,k,178.70966887500026,None,,,,,,,,,1,,,,2024-05-15_16h45.40.108,SceneCat_2023_2_key_resp,2024.1.1,None,2024-05-15 16h45.50.189327 +0200,
stimuli/asdfghjkloelkjhg.jpg,,1,,,,,,,,,,,,,,,,,,,,,,,,,,0,5,5,4,,,,,,,,,,,,,,,,,,,,,,,,,,,,,,,180.20817858300006,,,,,,,,d,183.615605167,None,,,,,,,,,1,,,,2024-05-15_16h45.40.108,SceneCat_2023_2_key_resp,2024.1.1,None,2024-05-15 16h45.50.189327 +0200,
stimuli/asdfghertghvgh.jpg,,1,,,,,,,,,,,,,,,,,,,,,,,,,,0,6,6,10,,,,,,,,,,,,,,,,,,,,,,,,,,,,,,,185.10718937499996,,,,,,,,d,188.60239766700033,None,,,,,,,,,1,,,,2024-05-15_16h45.40.108,SceneCat_2023_2_key_resp,2024.1.1,None,2024-05-15 16h45.50.189327 +0200,
stimuli/lkjhgfdxsdfghj.jpg,,1,,,,,,,,,,,,,,,,,,,,,,,,,,0,7,7,3,,,,,,,,,,,,,,,,,,,,,,,,,,,,,,,190.10784908300002,,,,,,,,d,193.39162791700028,None,,,,,,,,,1,,,,2024-05-15_16h45.40.108,SceneCat_2023_2_key_resp,2024.1.1,None,2024-05-15 16h45.50.189327 +0200,
stimuli/sdfghj.jpg,,3,,,,,,,,,,,,,,,,,,,,,,,,,,0,8,8,13,,,,,,,,,,,,,,,,,,,,,,,,,,,,,,,194.8911497920003,,,,,,,,k,197.2204132920001,None,,,,,,,,,1,,,,2024-05-15_16h45.40.108,SceneCat_2023_2_key_resp,2024.1.1,None,2024-05-15 16h45.50.189327 +0200,
stimuli/khfp.jpg,,1,,,,,,,,,,,,,,,,,,,,,,,,,,0,9,9,8,,,,,,,,,,,,,,,,,,,,,,,,,,,,,,,198.7250918750001,,,,,,,,d,201.85517200000004,None,,,,,,,,,1,,,,2024-05-15_16h45.40.108,SceneCat_2023_2_key_resp,2024.1.1,None,2024-05-15 16h45.50.189327 +0200,
stimuli/sdfghjklkjbv.jpg,,1,,,,,,,,,,,,,,,,,,,,,,,,,,0,10,10,5,,,,,,,,,,,,,,,,,,,,,,,,,,,,,,,203.35781795799994,,,,,,,,d,205.6390240830001,None,,,,,,,,,1,,,,2024-05-15_16h45.40.108,SceneCat_2023_2_key_resp,2024.1.1,None,2024-05-15 16h45.50.189327 +0200,
stimuli/lituryeyxcfvghjk.jpg,,1,,,,,,,,,,,,,,,,,,,,,,,,,,0,11,11,7,,,,,,,,,,,,,,,,,,,,,,,,,,,,,,,207.14165600000024,,,,,,,,k,209.34091729200009,None,,,,,,,,,1,,,,2024-05-15_16h45.40.108,SceneCat_2023_2_key_resp,2024.1.1,None,2024-05-15 16h45.50.189327 +0200,
stimuli/kjhgfdfgh.jpg,,3,,,,,,,,,,,,,,,,,,,,,,,,,,0,12,12,14,,,,,,,,,,,,,,,,,,,,,,,,,,,,,,,210.84014787500018,,,,,,,,k,213.14935683300018,None,,,,,,,,,1,,,,2024-05-15_16h45.40.108,SceneCat_2023_2_key_resp,2024.1.1,None,2024-05-15 16h45.50.189327 +0200,
stimuli/erthjnbvcfg.jpg,,1,,,,,,,,,,,,,,,,,,,,,,,,,,0,13,13,11,,,,,,,,,,,,,,,,,,,,,,,,,,,,,,,214.65879945799998,,,,,,,,k,216.38961145800022,None,,,,,,,,,1,,,,2024-05-15_16h45.40.108,SceneCat_2023_2_key_resp,2024.1.1,None,2024-05-15 16h45.50.189327 +0200,
stimuli/oelkjhgfcfghjk.jpg,,1,,,,,,,,,,,,,,,,,,,,,,,,,,0,14,14,2,,,,,,,,,,,,,,,,,,,,,,,,,,,,,,,217.8914978749999,,,,,,,,k,219.4422555420001,None,,,,,,,,,1,,,,2024-05-15_16h45.40.108,SceneCat_2023_2_key_resp,2024.1.1,None,2024-05-15 16h45.50.189327 +0200,
stimuli/fvbjgv.jpg,,1,,,,,,,,,,,,,,,,,,,,,,,,,,0,15,15,1,,,,,,,,,,,,,,,,,,,,,,,,,,,,,,,220.95846966699992,,,,,,,,k,221.9472433750002,None,,,,,,,,,1,,,,2024-05-15_16h45.40.108,SceneCat_2023_2_key_resp,2024.1.1,None,2024-05-15 16h45.50.189327 +0200,
,,,,,,,,,,,,,,,,,,,,,,,,,,,,,,,,,,,,,,,,,,,,,,,,,,,,,,,,,,,,,,,,,,,,,,,,,,,,,,,,,1,,,,2024-05-15_16h45.40.108,SceneCat_2023_2_key_resp,2024.1.1,None,2024-05-15 16h45.50.189327 +0200,
stimuli/img_k0m56.jpg,f,,1,0,0,0,0,0,1,categorization,1,1,1,1,living_room,living_room,target,76.0277777777778,49.9722222222222,36,63,168,high,,,,,,,,,0,0,0,0,,,,,,,,,,,,,,,,,0,0,0,0,,,,,,,225.8301557919999,,,,,,,,,,,226.23139833300002,226.23139833300002,232.9000395420003,233.64159012500022,j,0,237.02742450000005,None,1,,,,2024-05-15_16h45.40.108,SceneCat_2023_2_key_resp,2024.1.1,None,2024-05-15 16h45.50.189327 +0200,
stimuli/img_89dvt.jpg,f,,1,0,0,0,0,0,1,categorization,1,1,2,2,living_room,living_room,target,79.9032258064516,63,31,71.4516129032258,212,high,,,,,,,,,0,0,0,0,,,,,,,,,,,,,,,,,0,1,1,1,,,,,,,237.04512533300021,,,,,,,,,,,,,238.64874487499992,,j,0,239.03662720800003,None,1,,,,2024-05-15_16h45.40.108,SceneCat_2023_2_key_resp,2024.1.1,None,2024-05-15 16h45.50.189327 +0200,
stimuli/img_zv0dq.jpg,j,,1,0,0,0,0,0,1,categorization,1,1,3,3,living_room,bedroom,distractor,78,56.0625,32,67.03125,304,high,,,,,,,,,0,0,0,0,,,,,,,,,,,,,,,,,0,2,2,2,,,,,,,239.0550900420003,,,,,,,,,,,,,240.9479604170001,,j,1,241.312943292,None,1,,,,2024-05-15_16h45.40.108,SceneCat_2023_2_key_resp,2024.1.1,None,2024-05-15 16h45.50.189327 +0200,
stimuli/img_hfj08.jpg,f,,1,0,0,0,0,0,1,categorization,1,1,4,4,living_room,living_room,target,86.5897435897436,60.6410256410256,39,73.6153846153846,225,high,,,,,,,,,0,0,0,0,,,,,,,,,,,,,,,,,0,3,3,3,,,,,,,241.32941849999997,,,,,,,,,,,,,242.67259279200016,243.41843616699998,j,0,244.1611390420003,None,1,,,,2024-05-15_16h45.40.108,SceneCat_2023_2_key_resp,2024.1.1,None,2024-05-15 16h45.50.189327 +0200,
stimuli/img_xr3up.jpg,f,,1,0,0,0,0,0,1,categorization,1,1,5,5,living_room,living_room,target,75.2439024390244,53.4146341463415,41,64.3292682926829,176,high,,,,,,,,,0,0,0,0,,,,,,,,,,,,,,,,,0,4,4,4,,,,,,,244.17973633300016,,,,,,,,,,,,,245.9336400000002,246.67492641700028,j,0,246.9762114170003,None,1,,,,2024-05-15_16h45.40.108,SceneCat_2023_2_key_resp,2024.1.1,None,2024-05-15 16h45.50.189327 +0200,
stimuli/img_hc7o8.jpg,f,,1,0,0,0,0,0,1,categorization,1,1,6,6,living_room,living_room,target,35.2068965517241,36.4137931034483,29,35.8103448275862,56,low,,,,,,,,,0,0,0,0,,,,,,,,,,,,,,,,,0,5,5,5,,,,,,,246.99479383300013,,,,,,,,,,,,,248.1903091250001,,j,0,248.48817591700026,None,1,,,,2024-05-15_16h45.40.108,SceneCat_2023_2_key_resp,2024.1.1,None,2024-05-15 16h45.50.189327 +0200,
stimuli/img_injp0.jpg,f,,1,0,0,0,0,0,1,categorization,1,1,7,7,living_room,living_room,target,63.65625,30.5,32,47.078125,95,low,,,,,,,,,0,0,0,0,,,,,,,,,,,,,,,,,0,6,6,6,,,,,,,248.5346709170003,,,,,,,,,,,,,250.00654162499995,,j,0,250.31671970800016,None,1,,,,2024-05-15_16h45.40.108,SceneCat_2023_2_key_resp,2024.1.1,None,2024-05-15 16h45.50.189327 +0200,
stimuli/img_fejeo.jpg,f,,1,0,0,0,0,0,1,categorization,1,1,8,8,living_room,living_room,target,81.0294117647059,65.3235294117647,34,73.1764705882353,223,high,,,,,,,,,0,0,0,0,,,,,,,,,,,,,,,,,0,7,7,7,,,,,,,250.34494904200028,,,,,,,,,,,,,251.60614275000034,,j,0,251.86063000000013,None,1,,,,2024-05-15_16h45.40.108,SceneCat_2023_2_key_resp,2024.1.1,None,2024-05-15 16h45.50.189327 +0200,
stimuli/img_kost0.jpg,f,,1,0,0,0,0,0,1,categorization,1,1,9,9,living_room,living_room,target,64.3030303030303,41.3636363636364,33,52.8333333333333,121,low,,,,,,,,,0,0,0,0,,,,,,,,,,,,,,,,,0,8,8,8,,,,,,,251.9522971250003,,,,,,,,,,,,,253.08406487499997,,j,0,253.30870350000032,None,1,,,,2024-05-15_16h45.40.108,SceneCat_2023_2_key_resp,2024.1.1,None,2024-05-15 16h45.50.189327 +0200,
stimuli/img_xt3jt.jpg,f,,1,0,0,0,0,0,1,categorization,1,1,10,10,living_room,living_room,target,61.4242424242424,40.8181818181818,33,51.1212121212121,114,low,,,,,,,,,0,0,0,0,,,,,,,,,,,,,,,,,0,9,9,9,,,,,,,253.4283045420002,,,,,,,,,,,,,254.91618100000005,,j,0,255.57173716700026,None,1,,,,2024-05-15_16h45.40.108,SceneCat_2023_2_key_resp,2024.1.1,None,2024-05-15 16h45.50.189327 +0200,
stimuli/img_00ojb.jpg,f,,1,0,0,0,0,0,1,categorization,1,1,11,11,living_room,living_room,target,82.2702702702703,67.4324324324324,37,74.8513513513514,239,high,,,,,,,,,0,0,0,0,,,,,,,,,,,,,,,,,0,10,10,10,,,,,,,255.58766041700028,,,,,,,,,,,,,256.6069217080003,257.3529695420002,j,0,257.4460637500001,None,1,,,,2024-05-15_16h45.40.108,SceneCat_2023_2_key_resp,2024.1.1,None,2024-05-15 16h45.50.189327 +0200,
stimuli/img_fmgjx.jpg,f,,1,0,0,0,0,0,1,categorization,1,1,12,12,living_room,living_room,target,81.5333333333333,56.0666666666667,30,68.8,199,high,,,,,,,,,0,0,0,0,,,,,,,,,,,,,,,,,0,11,11,11,,,,,,,257.4634167500003,,,,,,,,,,,,,258.80801420800026,259.55247775,j,0,261.6648365420001,None,1,,,,2024-05-15_16h45.40.108,SceneCat_2023_2_key_resp,2024.1.1,None,2024-05-15 16h45.50.189327 +0200,
stimuli/img_fud7l.jpg,j,,1,0,0,0,0,0,1,categorization,1,1,13,13,living_room,kitchen,distractor,57.3846153846154,45.1153846153846,26,51.25,204,low,,,,,,,,,0,0,0,0,,,,,,,,,,,,,,,,,0,12,12,12,,,,,,,261.68013491700003,,,,,,,,,,,,,263.0502566670002,263.79229787500026,j,1,263.86762883300025,None,1,,,,2024-05-15_16h45.40.108,SceneCat_2023_2_key_resp,2024.1.1,None,2024-05-15 16h45.50.189327 +0200,
stimuli/img_u1i9n.jpg,j,,1,0,0,0,0,0,1,categorization,1,1,14,14,living_room,kitchen,distractor,87.4516129032258,61.5161290322581,31,74.4838709677419,648,high,,,,,,,,,0,0,0,0,,,,,,,,,,,,,,,,,0,13,13,13,,,,,,,263.879465,,,,,,,,,,,,,264.898616167,265.6431335420002,j,1,266.4330439170003,None,1,,,,2024-05-15_16h45.40.108,SceneCat_2023_2_key_resp,2024.1.1,None,2024-05-15 16h45.50.189327 +0200,
stimuli/img_t4sid.jpg,j,,1,0,0,0,0,0,1,categorization,1,1,15,15,living_room,kitchen,distractor,59.6206896551724,36,29,47.8103448275862,168,low,,,,,,,,,0,0,0,0,,,,,,,,,,,,,,,,,0,14,14,14,,,,,,,266.447084208,,,,,,,,,,,,,268.31689462500026,269.0590738750002,j,1,269.38750120800023,None,1,,,,2024-05-15_16h45.40.108,SceneCat_2023_2_key_resp,2024.1.1,None,2024-05-15 16h45.50.189327 +0200,
stimuli/img_o2lar.jpg,f,,1,0,0,0,0,0,1,categorization,1,1,16,16,living_room,living_room,target,45.1935483870968,34.6129032258064,31,39.9032258064516,67,low,,,,,,,,,0,0,0,0,,,,,,,,,,,,,,,,,0,15,15,15,,,,,,,269.403441167,,,,,,,,,,,,,271.3669210000003,,j,0,271.877996875,None,1,,,,2024-05-15_16h45.40.108,SceneCat_2023_2_key_resp,2024.1.1,None,2024-05-15 16h45.50.189327 +0200,
stimuli/img_wwe90.jpg,j,,1,0,0,0,0,0,1,categorization,1,1,17,17,living_room,bedroom,distractor,69.6111111111111,51.1111111111111,36,60.3611111111111,220,low,,,,,,,,,0,0,0,0,,,,,,,,,,,,,,,,,0,16,16,16,,,,,,,271.8952803330003,,,,,,,,,,,,,273.59249212500026,274.33582320799997,j,1,275.140796875,None,1,,,,2024-05-15_16h45.40.108,SceneCat_2023_2_key_resp,2024.1.1,None,2024-05-15 16h45.50.189327 +0200,
stimuli/img_u5hpm.jpg,j,,1,0,0,0,0,0,1,categorization,1,1,18,18,living_room,kitchen,distractor,67.3513513513514,39.1891891891892,37,53.2702702702703,228,low,,,,,,,,,0,0,0,0,,,,,,,,,,,,,,,,,0,17,17,17,,,,,,,275.156103583,,,,,,,,,,,,,277.14081187500005,277.88605054200025,j,1,277.9212321670002,None,1,,,,2024-05-15_16h45.40.108,SceneCat_2023_2_key_resp,2024.1.1,None,2024-05-15 16h45.50.189327 +0200,
stimuli/img_xib79.jpg,f,,1,0,0,0,0,0,1,categorization,1,1,19,19,living_room,living_room,target,79.0322580645161,51.8387096774194,31,65.4354838709677,178,high,,,,,,,,,0,0,0,0,,,,,,,,,,,,,,,,,0,18,18,18,,,,,,,277.95354379200035,,,,,,,,,,,,,279.0343108750003,279.776055625,j,0,283.17359429199996,None,1,,,,2024-05-15_16h45.40.108,SceneCat_2023_2_key_resp,2024.1.1,None,2024-05-15 16h45.50.189327 +0200,
stimuli/img_8297a.jpg,f,,1,0,0,0,0,0,1,categorization,1,1,20,20,living_room,living_room,target,92.0882352941177,76.3823529411765,34,84.2352941176471,288,high,,,,,,,,,0,0,0,0,,,,,,,,,,,,,,,,,0,19,19,19,,,,,,,283.18708866700035,,,,,,,,,,,,,284.3507490420002,,j,0,285.03894741700014,None,1,,,,2024-05-15_16h45.40.108,SceneCat_2023_2_key_resp,2024.1.1,None,2024-05-15 16h45.50.189327 +0200,
stimuli/img_16kib.jpg,f,,1,0,0,0,0,0,1,categorization,1,1,21,21,living_room,living_room,target,81.2647058823529,58.8235294117647,34,70.0441176470588,204,high,,,,,,,,,0,0,0,0,,,,,,,,,,,,,,,,,0,20,20,20,,,,,,,285.0537114580002,,,,,,,,,,,,,286.4503922920003,287.1930708330001,j,0,287.4712597500002,None,1,,,,2024-05-15_16h45.40.108,SceneCat_2023_2_key_resp,2024.1.1,None,2024-05-15 16h45.50.189327 +0200,
stimuli/img_9ro1y.jpg,f,,1,0,0,0,0,0,1,categorization,1,1,22,22,living_room,living_room,target,66.9473684210526,49.2105263157895,38,58.0789473684211,144,low,,,,,,,,,0,0,0,0,,,,,,,,,,,,,,,,,0,21,21,21,,,,,,,287.5040180420001,,,,,,,,,,,,,288.61852045800015,289.36005012500027,j,0,292.49596333299996,None,1,,,,2024-05-15_16h45.40.108,SceneCat_2023_2_key_resp,2024.1.1,None,2024-05-15 16h45.50.189327 +0200,
stimuli/img_kf7vw.jpg,f,,1,0,0,0,0,0,1,categorization,1,1,23,23,living_room,living_room,target,88.3142857142857,59.5142857142857,35,73.9142857142857,227,high,,,,,,,,,0,0,0,0,,,,,,,,,,,,,,,,,0,22,22,22,,,,,,,292.51366104199997,,,,,,,,,,,,,293.7337952920002,,j,0,294.37119950000033,None,1,,,,2024-05-15_16h45.40.108,SceneCat_2023_2_key_resp,2024.1.1,None,2024-05-15 16h45.50.189327 +0200,
stimuli/img_gnxyk.jpg,f,,1,0,0,0,0,0,1,categorization,1,1,24,24,living_room,living_room,target,86.4864864864865,72.4054054054054,37,79.4459459459459,269,high,,,,,,,,,0,0,0,0,,,,,,,,,,,,,,,,,0,23,23,23,,,,,,,294.40378229199996,,,,,,,,,,,,,295.6172377920002,,j,0,296.23976737500016,None,1,,,,2024-05-15_16h45.40.108,SceneCat_2023_2_key_resp,2024.1.1,None,2024-05-15 16h45.50.189327 +0200,
stimuli/img_jpldg.jpg,f,,1,0,0,0,0,0,1,categorization,1,1,25,25,living_room,living_room,target,81.7878787878788,58.1212121212121,33,69.9545454545455,203,high,,,,,,,,,0,0,0,0,,,,,,,,,,,,,,,,,0,24,24,24,,,,,,,296.27039545800017,,,,,,,,,,,,,297.9503783750001,,j,0,298.57125941699996,None,1,,,,2024-05-15_16h45.40.108,SceneCat_2023_2_key_resp,2024.1.1,None,2024-05-15 16h45.50.189327 +0200,
stimuli/img_a6u3n.jpg,f,,1,0,0,0,0,0,1,categorization,1,1,26,26,living_room,living_room,target,82.6666666666667,61.1212121212121,33,71.8939393939394,215,high,,,,,,,,,0,0,0,0,,,,,,,,,,,,,,,,,0,25,25,25,,,,,,,298.60383924999996,,,,,,,,,,,,,300.47435916700033,,j,0,301.1054222500002,None,1,,,,2024-05-15_16h45.40.108,SceneCat_2023_2_key_resp,2024.1.1,None,2024-05-15 16h45.50.189327 +0200,
stimuli/img_bbs77.jpg,f,,1,0,0,0,0,0,1,categorization,1,1,27,27,living_room,living_room,target,28.7777777777778,19.0555555555556,36,23.9166666666667,29,low,,,,,,,,,0,0,0,0,,,,,,,,,,,,,,,,,0,26,26,26,,,,,,,301.13733954200006,,,,,,,,,,,,,302.57422566700006,,j,0,303.230437875,None,1,,,,2024-05-15_16h45.40.108,SceneCat_2023_2_key_resp,2024.1.1,None,2024-05-15 16h45.50.189327 +0200,
stimuli/img_qwtnc.jpg,j,,1,0,0,0,0,0,1,categorization,1,1,28,28,living_room,kitchen,distractor,61.2162162162162,32.5945945945946,37,46.9054054054054,156,low,,,,,,,,,0,0,0,0,,,,,,,,,,,,,,,,,0,27,27,27,,,,,,,303.2473677080002,,,,,,,,,,,,,304.4513377080002,305.19385224999996,j,1,307.7464693330003,None,1,,,,2024-05-15_16h45.40.108,SceneCat_2023_2_key_resp,2024.1.1,None,2024-05-15 16h45.50.189327 +0200,
,,,,,,,,,,,,,,,,,,,,,,,,,,,,,,,,,,,,,,,,,,,,,,,,,,,,,,,,,,,,,,307.77870758300014,,,,,,,,,,,,,,,,,,,,,,,,,,,,
