stimulus,correct_answer,correct_1,living_room_1,kitchen_1,living_room_2,bedroom_1,kitchen_2,bedroom_2,subject_id,task,block_total_cat,block_scene_cat,trial_block_cat,trial_total_cat,target_cat,category,cond_cat,conceptual,perceptual,n,typicality,ranked,typi_bin,cond_mem,trial_total_mem,cat_training_trials.thisRepN,cat_training_trials.thisTrialN,cat_training_trials.thisN,cat_training_trials.thisIndex,memo_training_trials.thisRepN,memo_training_trials.thisTrialN,memo_training_trials.thisN,memo_training_trials.thisIndex,categorization_trials.thisRepN,categorization_trials.thisTrialN,categorization_trials.thisN,categorization_trials.thisIndex,kitchen_a_categorization_trials.thisRepN,kitchen_a_categorization_trials.thisTrialN,kitchen_a_categorization_trials.thisN,kitchen_a_categorization_trials.thisIndex,kitchen_a_memotest.thisRepN,kitchen_a_memotest.thisTrialN,kitchen_a_memotest.thisN,kitchen_a_memotest.thisIndex,kitchen_b_categorization_trials.thisRepN,kitchen_b_categorization_trials.thisTrialN,kitchen_b_categorization_trials.thisN,kitchen_b_categorization_trials.thisIndex,kitchen_b_memotest.thisRepN,kitchen_b_memotest.thisTrialN,kitchen_b_memotest.thisN,kitchen_b_memotest.thisIndex,living_a_categorization_trials.thisRepN,living_a_categorization_trials.thisTrialN,living_a_categorization_trials.thisN,living_a_categorization_trials.thisIndex,living_a_memotest.thisRepN,living_a_memotest.thisTrialN,living_a_memotest.thisN,living_a_memotest.thisIndex,living_b_categorization_trials.thisRepN,living_b_categorization_trials.thisTrialN,living_b_categorization_trials.thisN,living_b_categorization_trials.thisIndex,living_b_memotest.thisRepN,living_b_memotest.thisTrialN,living_b_memotest.thisN,living_b_memotest.thisIndex,bed_a_categorization_trials.thisRepN,bed_a_categorization_trials.thisTrialN,bed_a_categorization_trials.thisN,bed_a_categorization_trials.thisIndex,bed_a_memotest.thisRepN,bed_a_memotest.thisTrialN,bed_a_memotest.thisN,bed_a_memotest.thisIndex,bed_b_categorization_trials.thisRepN,bed_b_categorization_trials.thisTrialN,bed_b_categorization_trials.thisN,bed_b_categorization_trials.thisIndex,bed_b_memotest.thisRepN,bed_b_memotest.thisTrialN,bed_b_memotest.thisN,bed_b_memotest.thisIndex,thisRow.t,notes,instructions_cat_2.started,instructions_cat_2.stopped,cat_training_key.keys,cat_training_key.corr,cat_training_key.rt,cat_training_key.duration,memo_training_slider_key_resp.keys,memo_training_slider_key_resp.rt,memo_training_slider_key_resp.duration,living_a_text_2.started,living_a_block_no.started,living_picture_image.started,living_picture_resp.keys,living_picture_resp.corr,living_picture_resp.rt,living_picture_resp.duration,living_picture_image.stopped,memotest_task_slider_key_resp.keys,memotest_task_slider_key_resp.rt,memotest_task_slider_key_resp.duration,kitchen_fix.started,kitchen_picture_resp.keys,kitchen_picture_resp.corr,kitchen_picture_resp.rt,kitchen_picture_resp.duration,living_b_text_2.started,living_b_block_no.started,bed_a_text_2.started,bed_a_block_no.started,bed_picture_image.started,bed_picture_image.stopped,bed_picture_resp.keys,bed_picture_resp.corr,bed_picture_resp.rt,bed_picture_resp.duration,bed_b_text_2.started,bed_b_block_no.started,vpcode,participant,Alter,Geschlecht,Haendigkeit,date,expName,psychopyVersion,frameRate,expStart,
,,,,,,,,,,,,,,,,,,,,,,,,,,,,,,,,,,,,,,,,,,,,,,,,,,,,,,,,,,,,,,,,,,,,,,,,,,,,,,,,,,,,,,,,,,,,,,,,,,,,,,,,,,,,,,,,,,,,,,,,,,,,,,1,,,,2024-05-20_15h59.38.842,SceneCat_2023_2_key_resp,2024.1.1,None,2024-05-20 15h59.45.525800 +0200,
,,,,,,,,,,,,,,,,,,,,,,,,,,,,,,,,,,,,,,,,,,,,,,,,,,,,,,,,,,,,,,,,,,,,,,,,,,,,,,,,,,,,,,,,,,,,,,,,,,,,,,,,,,,,,,,,,,,,,,,,,,,,,,1,,,,2024-05-20_15h59.38.842,SceneCat_2023_2_key_resp,2024.1.1,None,2024-05-20 15h59.45.525800 +0200,
,,,,,,,,,,,,,,,,,,,,,,,,,,,,,,,,,,,,,,,,,,,,,,,,,,,,,,,,,,,,,,,,,,,,,,,,,,,,,,,,,,,,,,,,,,,,,,,,,,,,,,,,,,,,,,,,,,,,,,,,,,,,,,1,,,,2024-05-20_15h59.38.842,SceneCat_2023_2_key_resp,2024.1.1,None,2024-05-20 15h59.45.525800 +0200,
,,,,,,,,,,,,,,,,,,,,,,,,,,,,,,,,,,,,,,,,,,,,,,,,,,,,,,,,,,,,,,,,,,,,,,,,,,,,,,,,,,,,,,,,,,,,,,,,,,,,,,,,,,,,,,,,,,,,,,,,,,,,,,1,,,,2024-05-20_15h59.38.842,SceneCat_2023_2_key_resp,2024.1.1,None,2024-05-20 15h59.45.525800 +0200,
,,,,,,,,,,,,,,,,,,,,,,,,,,,,,,,,,,,,,,,,,,,,,,,,,,,,,,,,,,,,,,,,,,,,,,,,,,,,,,,,,,,,,,,,,,,,,,,,,,,,,,,,,,,,,,,,,,,,,,,,,,,,,,1,,,,2024-05-20_15h59.38.842,SceneCat_2023_2_key_resp,2024.1.1,None,2024-05-20 15h59.45.525800 +0200,
,,,,,,,,,,,,,,,,,,,,,,,,,,,,,,,,,,,,,,,,,,,,,,,,,,,,,,,,,,,,,,,,,,,,,,,,,,,,,,,,,,,,,,,,75.97272849999717,77.98263945800136,,,,,,,,,,,,,,,,,,,,,,,,,,,,,,,,,,,,,1,,,,2024-05-20_15h59.38.842,SceneCat_2023_2_key_resp,2024.1.1,None,2024-05-20 15h59.45.525800 +0200,
,,,,,,,,,,,,,,,,,,,,,,,,,,,,,,,,,,,,,,,,,,,,,,,,,,,,,,,,,,,,,,,,,,,,,,,,,,,,,,,,,,,,,,,,,,,,,,,,,,,,,,,,,,,,,,,,,,,,,,,,,,,,,,1,,,,2024-05-20_15h59.38.842,SceneCat_2023_2_key_resp,2024.1.1,None,2024-05-20 15h59.45.525800 +0200,
stimuli/khfp.jpg,f,,,,,,,,,,,,,,,,,,,,,,,,,0,0,0,8,,,,,,,,,,,,,,,,,,,,,,,,,,,,,,,,,,,,,,,,,,,,,,,,,,,,,,,,,80.48593450000044,,,,f,1,83.2012960830034,None,,,,,,,,,,,,,,,,,,,,,,,,,,,,,,,,,1,,,,2024-05-20_15h59.38.842,SceneCat_2023_2_key_resp,2024.1.1,None,2024-05-20 15h59.45.525800 +0200,
stimuli/sdfghjklkjbv.jpg,f,,,,,,,,,,,,,,,,,,,,,,,,,0,1,1,5,,,,,,,,,,,,,,,,,,,,,,,,,,,,,,,,,,,,,,,,,,,,,,,,,,,,,,,,,84.21377850000863,,,,j,0,86.55153433300438,None,,,,,,,,,,,,,,,,,,,,,,,,,,,,,,,,,1,,,,2024-05-20_15h59.38.842,SceneCat_2023_2_key_resp,2024.1.1,None,2024-05-20 15h59.45.525800 +0200,
stimuli/ihnbvcfgd.jpg,f,,,,,,,,,,,,,,,,,,,,,,,,,0,2,2,6,,,,,,,,,,,,,,,,,,,,,,,,,,,,,,,,,,,,,,,,,,,,,,,,,,,,,,,,,87.56397670799925,,,,j,0,89.5282851660013,None,,,,,,,,,,,,,,,,,,,,,,,,,,,,,,,,,1,,,,2024-05-20_15h59.38.842,SceneCat_2023_2_key_resp,2024.1.1,None,2024-05-20 15h59.45.525800 +0200,
stimuli/uzgfvbnh.jpg,j,,,,,,,,,,,,,,,,,,,,,,,,,0,3,3,14,,,,,,,,,,,,,,,,,,,,,,,,,,,,,,,,,,,,,,,,,,,,,,,,,,,,,,,,,90.5374616659974,,,,j,1,92.2287399580091,None,,,,,,,,,,,,,,,,,,,,,,,,,,,,,,,,,1,,,,2024-05-20_15h59.38.842,SceneCat_2023_2_key_resp,2024.1.1,None,2024-05-20 15h59.45.525800 +0200,
stimuli/asdfghjkloelkjhg.jpg,f,,,,,,,,,,,,,,,,,,,,,,,,,0,4,4,4,,,,,,,,,,,,,,,,,,,,,,,,,,,,,,,,,,,,,,,,,,,,,,,,,,,,,,,,,93.23765262500092,,,,j,0,95.36914199999592,None,,,,,,,,,,,,,,,,,,,,,,,,,,,,,,,,,1,,,,2024-05-20_15h59.38.842,SceneCat_2023_2_key_resp,2024.1.1,None,2024-05-20 15h59.45.525800 +0200,
stimuli/gfvbnbg.jpg,j,,,,,,,,,,,,,,,,,,,,,,,,,0,5,5,13,,,,,,,,,,,,,,,,,,,,,,,,,,,,,,,,,,,,,,,,,,,,,,,,,,,,,,,,,96.38760387500224,,,,j,1,98.59942066599615,None,,,,,,,,,,,,,,,,,,,,,,,,,,,,,,,,,1,,,,2024-05-20_15h59.38.842,SceneCat_2023_2_key_resp,2024.1.1,None,2024-05-20 15h59.45.525800 +0200,
stimuli/oelkjhgfcfghjk.jpg,f,,,,,,,,,,,,,,,,,,,,,,,,,0,6,6,2,,,,,,,,,,,,,,,,,,,,,,,,,,,,,,,,,,,,,,,,,,,,,,,,,,,,,,,,,99.62069066600816,,,,j,0,101.71690266599762,None,,,,,,,,,,,,,,,,,,,,,,,,,,,,,,,,,1,,,,2024-05-20_15h59.38.842,SceneCat_2023_2_key_resp,2024.1.1,None,2024-05-20 15h59.45.525800 +0200,
stimuli/lkjhgfdxsdfghj.jpg,f,,,,,,,,,,,,,,,,,,,,,,,,,0,7,7,3,,,,,,,,,,,,,,,,,,,,,,,,,,,,,,,,,,,,,,,,,,,,,,,,,,,,,,,,,102.73113962500065,,,,j,0,104.17833925000741,None,,,,,,,,,,,,,,,,,,,,,,,,,,,,,,,,,1,,,,2024-05-20_15h59.38.842,SceneCat_2023_2_key_resp,2024.1.1,None,2024-05-20 15h59.45.525800 +0200,
stimuli/lituryeyxcfvghjk.jpg,f,,,,,,,,,,,,,,,,,,,,,,,,,0,8,8,7,,,,,,,,,,,,,,,,,,,,,,,,,,,,,,,,,,,,,,,,,,,,,,,,,,,,,,,,,105.18784466599755,,,,j,0,107.0504057079961,None,,,,,,,,,,,,,,,,,,,,,,,,,,,,,,,,,1,,,,2024-05-20_15h59.38.842,SceneCat_2023_2_key_resp,2024.1.1,None,2024-05-20 15h59.45.525800 +0200,
stimuli/fvbjgv.jpg,f,,,,,,,,,,,,,,,,,,,,,,,,,0,9,9,1,,,,,,,,,,,,,,,,,,,,,,,,,,,,,,,,,,,,,,,,,,,,,,,,,,,,,,,,,108.05452929099556,,,,j,0,109.68354500000714,None,,,,,,,,,,,,,,,,,,,,,,,,,,,,,,,,,1,,,,2024-05-20_15h59.38.842,SceneCat_2023_2_key_resp,2024.1.1,None,2024-05-20 15h59.45.525800 +0200,
stimuli/erthjnbvcfg.jpg,f,,,,,,,,,,,,,,,,,,,,,,,,,0,10,10,11,,,,,,,,,,,,,,,,,,,,,,,,,,,,,,,,,,,,,,,,,,,,,,,,,,,,,,,,,110.68831116599904,,,,j,0,112.36648295800842,None,,,,,,,,,,,,,,,,,,,,,,,,,,,,,,,,,1,,,,2024-05-20_15h59.38.842,SceneCat_2023_2_key_resp,2024.1.1,None,2024-05-20 15h59.45.525800 +0200,
stimuli/zgfdetz.jpg,j,,,,,,,,,,,,,,,,,,,,,,,,,0,11,11,15,,,,,,,,,,,,,,,,,,,,,,,,,,,,,,,,,,,,,,,,,,,,,,,,,,,,,,,,,113.37134004100517,,,,j,1,115.23285237500386,None,,,,,,,,,,,,,,,,,,,,,,,,,,,,,,,,,1,,,,2024-05-20_15h59.38.842,SceneCat_2023_2_key_resp,2024.1.1,None,2024-05-20 15h59.45.525800 +0200,
stimuli/ztfcvbnhg.jpg,f,,,,,,,,,,,,,,,,,,,,,,,,,0,12,12,0,,,,,,,,,,,,,,,,,,,,,,,,,,,,,,,,,,,,,,,,,,,,,,,,,,,,,,,,,116.3381614999962,,,,j,0,118.49515541600704,None,,,,,,,,,,,,,,,,,,,,,,,,,,,,,,,,,1,,,,2024-05-20_15h59.38.842,SceneCat_2023_2_key_resp,2024.1.1,None,2024-05-20 15h59.45.525800 +0200,
stimuli/asdfghertghvgh.jpg,f,,,,,,,,,,,,,,,,,,,,,,,,,0,13,13,10,,,,,,,,,,,,,,,,,,,,,,,,,,,,,,,,,,,,,,,,,,,,,,,,,,,,,,,,,119.50523037499806,,,,j,0,121.05739837500732,None,,,,,,,,,,,,,,,,,,,,,,,,,,,,,,,,,1,,,,2024-05-20_15h59.38.842,SceneCat_2023_2_key_resp,2024.1.1,None,2024-05-20 15h59.45.525800 +0200,
stimuli/hhhh.jpg,f,,,,,,,,,,,,,,,,,,,,,,,,,0,14,14,9,,,,,,,,,,,,,,,,,,,,,,,,,,,,,,,,,,,,,,,,,,,,,,,,,,,,,,,,,122.07202337500348,,,,j,0,124.01918479100277,None,,,,,,,,,,,,,,,,,,,,,,,,,,,,,,,,,1,,,,2024-05-20_15h59.38.842,SceneCat_2023_2_key_resp,2024.1.1,None,2024-05-20 15h59.45.525800 +0200,
stimuli/uhnnfhj.jpg,j,,,,,,,,,,,,,,,,,,,,,,,,,0,15,15,12,,,,,,,,,,,,,,,,,,,,,,,,,,,,,,,,,,,,,,,,,,,,,,,,,,,,,,,,,125.02234158299689,,,,j,1,126.37849595800799,None,,,,,,,,,,,,,,,,,,,,,,,,,,,,,,,,,1,,,,2024-05-20_15h59.38.842,SceneCat_2023_2_key_resp,2024.1.1,None,2024-05-20 15h59.45.525800 +0200,
,,,,,,,,,,,,,,,,,,,,,,,,,,,,,,,,,,,,,,,,,,,,,,,,,,,,,,,,,,,,,,,,,,,,,,,,,,,,,,,,,,,,,,,,,,,,,,,,,,,,,,,,,,,,,,,,,,,,,,,,,,,,,,1,,,,2024-05-20_15h59.38.842,SceneCat_2023_2_key_resp,2024.1.1,None,2024-05-20 15h59.45.525800 +0200,
stimuli/lituryeyxcfvghjk.jpg,,1,,,,,,,,,,,,,,,,,,,,,,,,,,,,0,0,0,7,,,,,,,,,,,,,,,,,,,,,,,,,,,,,,,,,,,,,,,,,,,,,,,,,,,,,130.71184387500398,,,,,,,,j,132.1407887499954,None,,,,,,,,,,,,,,,,,,,,,,,,,,,,,,1,,,,2024-05-20_15h59.38.842,SceneCat_2023_2_key_resp,2024.1.1,None,2024-05-20 15h59.45.525800 +0200,
stimuli/ztfcvbnhg.jpg,,1,,,,,,,,,,,,,,,,,,,,,,,,,,,,0,1,1,0,,,,,,,,,,,,,,,,,,,,,,,,,,,,,,,,,,,,,,,,,,,,,,,,,,,,,133.63810070800537,,,,,,,,j,136.31676170800347,None,,,,,,,,,,,,,,,,,,,,,,,,,,,,,,1,,,,2024-05-20_15h59.38.842,SceneCat_2023_2_key_resp,2024.1.1,None,2024-05-20 15h59.45.525800 +0200,
stimuli/asdfgh.jpg,,3,,,,,,,,,,,,,,,,,,,,,,,,,,,,0,2,2,12,,,,,,,,,,,,,,,,,,,,,,,,,,,,,,,,,,,,,,,,,,,,,,,,,,,,,137.81648912500532,,,,,,,,j,139.40636704099597,None,,,,,,,,,,,,,,,,,,,,,,,,,,,,,,1,,,,2024-05-20_15h59.38.842,SceneCat_2023_2_key_resp,2024.1.1,None,2024-05-20 15h59.45.525800 +0200,
stimuli/uhnbgh.jpg,,3,,,,,,,,,,,,,,,,,,,,,,,,,,,,0,3,3,15,,,,,,,,,,,,,,,,,,,,,,,,,,,,,,,,,,,,,,,,,,,,,,,,,,,,,140.92264866600453,,,,,,,,j,143.32882495800732,None,,,,,,,,,,,,,,,,,,,,,,,,,,,,,,1,,,,2024-05-20_15h59.38.842,SceneCat_2023_2_key_resp,2024.1.1,None,2024-05-20 15h59.45.525800 +0200,
stimuli/fvbjgv.jpg,,1,,,,,,,,,,,,,,,,,,,,,,,,,,,,0,4,4,1,,,,,,,,,,,,,,,,,,,,,,,,,,,,,,,,,,,,,,,,,,,,,,,,,,,,,144.83960474999913,,,,,,,,j,146.9038144579972,None,,,,,,,,,,,,,,,,,,,,,,,,,,,,,,1,,,,2024-05-20_15h59.38.842,SceneCat_2023_2_key_resp,2024.1.1,None,2024-05-20 15h59.45.525800 +0200,
stimuli/kjhgfdfgh.jpg,,3,,,,,,,,,,,,,,,,,,,,,,,,,,,,0,5,5,14,,,,,,,,,,,,,,,,,,,,,,,,,,,,,,,,,,,,,,,,,,,,,,,,,,,,,148.4064166659955,,,,,,,,j,150.66025145800086,None,,,,,,,,,,,,,,,,,,,,,,,,,,,,,,1,,,,2024-05-20_15h59.38.842,SceneCat_2023_2_key_resp,2024.1.1,None,2024-05-20 15h59.45.525800 +0200,
stimuli/hhhh.jpg,,1,,,,,,,,,,,,,,,,,,,,,,,,,,,,0,6,6,9,,,,,,,,,,,,,,,,,,,,,,,,,,,,,,,,,,,,,,,,,,,,,,,,,,,,,152.1565429159964,,,,,,,,j,154.2961867080012,None,,,,,,,,,,,,,,,,,,,,,,,,,,,,,,1,,,,2024-05-20_15h59.38.842,SceneCat_2023_2_key_resp,2024.1.1,None,2024-05-20 15h59.45.525800 +0200,
stimuli/erthjnbvcfg.jpg,,1,,,,,,,,,,,,,,,,,,,,,,,,,,,,0,7,7,11,,,,,,,,,,,,,,,,,,,,,,,,,,,,,,,,,,,,,,,,,,,,,,,,,,,,,155.7896137080097,,,,,,,,j,157.00731883299886,None,,,,,,,,,,,,,,,,,,,,,,,,,,,,,,1,,,,2024-05-20_15h59.38.842,SceneCat_2023_2_key_resp,2024.1.1,None,2024-05-20 15h59.45.525800 +0200,
stimuli/sdfghj.jpg,,3,,,,,,,,,,,,,,,,,,,,,,,,,,,,0,8,8,13,,,,,,,,,,,,,,,,,,,,,,,,,,,,,,,,,,,,,,,,,,,,,,,,,,,,,158.5069575410016,,,,,,,,j,160.80451645799621,None,,,,,,,,,,,,,,,,,,,,,,,,,,,,,,1,,,,2024-05-20_15h59.38.842,SceneCat_2023_2_key_resp,2024.1.1,None,2024-05-20 15h59.45.525800 +0200,
stimuli/sdfghjklkjbv.jpg,,1,,,,,,,,,,,,,,,,,,,,,,,,,,,,0,9,9,5,,,,,,,,,,,,,,,,,,,,,,,,,,,,,,,,,,,,,,,,,,,,,,,,,,,,,162.30713241599733,,,,,,,,j,163.2513733329979,None,,,,,,,,,,,,,,,,,,,,,,,,,,,,,,1,,,,2024-05-20_15h59.38.842,SceneCat_2023_2_key_resp,2024.1.1,None,2024-05-20 15h59.45.525800 +0200,
stimuli/ihnbvcfgd.jpg,,1,,,,,,,,,,,,,,,,,,,,,,,,,,,,0,10,10,6,,,,,,,,,,,,,,,,,,,,,,,,,,,,,,,,,,,,,,,,,,,,,,,,,,,,,164.90684720799618,,,,,,,,j,166.53384929100866,None,,,,,,,,,,,,,,,,,,,,,,,,,,,,,,1,,,,2024-05-20_15h59.38.842,SceneCat_2023_2_key_resp,2024.1.1,None,2024-05-20 15h59.45.525800 +0200,
stimuli/lkjhgfdxsdfghj.jpg,,1,,,,,,,,,,,,,,,,,,,,,,,,,,,,0,11,11,3,,,,,,,,,,,,,,,,,,,,,,,,,,,,,,,,,,,,,,,,,,,,,,,,,,,,,168.04043687500234,,,,,,,,j,170.0409537910018,None,,,,,,,,,,,,,,,,,,,,,,,,,,,,,,1,,,,2024-05-20_15h59.38.842,SceneCat_2023_2_key_resp,2024.1.1,None,2024-05-20 15h59.45.525800 +0200,
stimuli/asdfghjkloelkjhg.jpg,,1,,,,,,,,,,,,,,,,,,,,,,,,,,,,0,12,12,4,,,,,,,,,,,,,,,,,,,,,,,,,,,,,,,,,,,,,,,,,,,,,,,,,,,,,171.54128466600378,,,,,,,,j,173.3599363329995,None,,,,,,,,,,,,,,,,,,,,,,,,,,,,,,1,,,,2024-05-20_15h59.38.842,SceneCat_2023_2_key_resp,2024.1.1,None,2024-05-20 15h59.45.525800 +0200,
stimuli/asdfghertghvgh.jpg,,1,,,,,,,,,,,,,,,,,,,,,,,,,,,,0,13,13,10,,,,,,,,,,,,,,,,,,,,,,,,,,,,,,,,,,,,,,,,,,,,,,,,,,,,,174.85601570800645,,,,,,,,j,176.4980248750071,None,,,,,,,,,,,,,,,,,,,,,,,,,,,,,,1,,,,2024-05-20_15h59.38.842,SceneCat_2023_2_key_resp,2024.1.1,None,2024-05-20 15h59.45.525800 +0200,
stimuli/khfp.jpg,,1,,,,,,,,,,,,,,,,,,,,,,,,,,,,0,14,14,8,,,,,,,,,,,,,,,,,,,,,,,,,,,,,,,,,,,,,,,,,,,,,,,,,,,,,177.9893710000033,,,,,,,,j,180.02259925000544,None,,,,,,,,,,,,,,,,,,,,,,,,,,,,,,1,,,,2024-05-20_15h59.38.842,SceneCat_2023_2_key_resp,2024.1.1,None,2024-05-20 15h59.45.525800 +0200,
stimuli/oelkjhgfcfghjk.jpg,,1,,,,,,,,,,,,,,,,,,,,,,,,,,,,0,15,15,2,,,,,,,,,,,,,,,,,,,,,,,,,,,,,,,,,,,,,,,,,,,,,,,,,,,,,181.51790108300338,,,,,,,,j,183.47947791600018,None,,,,,,,,,,,,,,,,,,,,,,,,,,,,,,1,,,,2024-05-20_15h59.38.842,SceneCat_2023_2_key_resp,2024.1.1,None,2024-05-20 15h59.45.525800 +0200,
,,,,,,,,,,,,,,,,,,,,,,,,,,,,,,,,,,,,,,,,,,,,,,,,,,,,,,,,,,,,,,,,,,,,,,,,,,,,,,,,,,,,,,,,,,,,,,,,,,,,,,,,,,,,,,,,,,,,,,,,,,,,,,1,,,,2024-05-20_15h59.38.842,SceneCat_2023_2_key_resp,2024.1.1,None,2024-05-20 15h59.45.525800 +0200,
stimuli/img_k0m56.jpg,f,,1,0,0,0,0,0,1,categorization,1,1,1,1,living_room,living_room,target,76.0277777777778,49.9722222222222,36,63,168,high,,,,,,,,,,,0,0,0,0,,,,,,,,,,,,,,,,,0,0,0,0,,,,,,,,,,,,,,,,,,,,,,,,,,,,,187.11181420800858,,,,,,,,,,,187.51737029099604,187.51737029099604,190.11634112500178,j,0,190.62102670800232,None,,,,,,,,,,,,,,,,,,,,,,,1,,,,2024-05-20_15h59.38.842,SceneCat_2023_2_key_resp,2024.1.1,None,2024-05-20 15h59.45.525800 +0200,
stimuli/img_89dvt.jpg,f,,1,0,0,0,0,0,1,categorization,1,1,2,2,living_room,living_room,target,79.9032258064516,63,31,71.4516129032258,212,high,,,,,,,,,,,0,0,0,0,,,,,,,,,,,,,,,,,0,1,1,1,,,,,,,,,,,,,,,,,,,,,,,,,,,,,190.63673383300193,,,,,,,,,,,,,192.16570304099878,j,0,192.73764979100088,None,,,,,,,,,,,,,,,,,,,,,,,1,,,,2024-05-20_15h59.38.842,SceneCat_2023_2_key_resp,2024.1.1,None,2024-05-20 15h59.45.525800 +0200,
stimuli/img_zv0dq.jpg,j,,1,0,0,0,0,0,1,categorization,1,1,3,3,living_room,bedroom,distractor,78,56.0625,32,67.03125,304,high,,,,,,,,,,,0,0,0,0,,,,,,,,,,,,,,,,,0,2,2,2,,,,,,,,,,,,,,,,,,,,,,,,,,,,,192.76779837500362,,,,,,,,,,,,,194.28108579100808,j,1,194.62456454100902,None,,,,,,,,,,,,,,,,,,,,,,,1,,,,2024-05-20_15h59.38.842,SceneCat_2023_2_key_resp,2024.1.1,None,2024-05-20 15h59.45.525800 +0200,
stimuli/img_hfj08.jpg,f,,1,0,0,0,0,0,1,categorization,1,1,4,4,living_room,living_room,target,86.5897435897436,60.6410256410256,39,73.6153846153846,225,high,,,,,,,,,,,0,0,0,0,,,,,,,,,,,,,,,,,0,3,3,3,,,,,,,,,,,,,,,,,,,,,,,,,,,,,194.63656008300313,,,,,,,,,,,,,196.51587400000426,j,0,197.15225012500014,None,,,,,,,,,,,,,,,,,,,,,,,1,,,,2024-05-20_15h59.38.842,SceneCat_2023_2_key_resp,2024.1.1,None,2024-05-20 15h59.45.525800 +0200,
stimuli/img_xr3up.jpg,f,,1,0,0,0,0,0,1,categorization,1,1,5,5,living_room,living_room,target,75.2439024390244,53.4146341463415,41,64.3292682926829,176,high,,,,,,,,,,,0,0,0,0,,,,,,,,,,,,,,,,,0,4,4,4,,,,,,,,,,,,,,,,,,,,,,,,,,,,,197.18424916600634,,,,,,,,,,,,,198.4814800410095,j,0,None,None,,,,,,,,,,,,,,,,,,,,,,,1,,,,2024-05-20_15h59.38.842,SceneCat_2023_2_key_resp,2024.1.1,None,2024-05-20 15h59.45.525800 +0200,
stimuli/img_hc7o8.jpg,f,,1,0,0,0,0,0,1,categorization,1,1,6,6,living_room,living_room,target,35.2068965517241,36.4137931034483,29,35.8103448275862,56,low,,,,,,,,,,,0,0,0,0,,,,,,,,,,,,,,,,,0,5,5,5,,,,,,,,,,,,,,,,,,,,,,,,,,,,,198.96073379099835,,,,,,,,,,,,,200.0878539999976,j,0,200.43597787500767,None,,,,,,,,,,,,,,,,,,,,,,,1,,,,2024-05-20_15h59.38.842,SceneCat_2023_2_key_resp,2024.1.1,None,2024-05-20 15h59.45.525800 +0200,
stimuli/img_injp0.jpg,f,,1,0,0,0,0,0,1,categorization,1,1,7,7,living_room,living_room,target,63.65625,30.5,32,47.078125,95,low,,,,,,,,,,,0,0,0,0,,,,,,,,,,,,,,,,,0,6,6,6,,,,,,,,,,,,,,,,,,,,,,,,,,,,,200.46736275000148,,,,,,,,,,,,,202.43367608300468,j,0,202.9856677909993,None,,,,,,,,,,,,,,,,,,,,,,,1,,,,2024-05-20_15h59.38.842,SceneCat_2023_2_key_resp,2024.1.1,None,2024-05-20 15h59.45.525800 +0200,
stimuli/img_fejeo.jpg,f,,1,0,0,0,0,0,1,categorization,1,1,8,8,living_room,living_room,target,81.0294117647059,65.3235294117647,34,73.1764705882353,223,high,,,,,,,,,,,0,0,0,0,,,,,,,,,,,,,,,,,0,7,7,7,,,,,,,,,,,,,,,,,,,,,,,,,,,,,203.01740762499685,,,,,,,,,,,,,204.53203075000783,j,0,204.93580012500752,None,,,,,,,,,,,,,,,,,,,,,,,1,,,,2024-05-20_15h59.38.842,SceneCat_2023_2_key_resp,2024.1.1,None,2024-05-20 15h59.45.525800 +0200,
stimuli/img_kost0.jpg,f,,1,0,0,0,0,0,1,categorization,1,1,9,9,living_room,living_room,target,64.3030303030303,41.3636363636364,33,52.8333333333333,121,low,,,,,,,,,,,0,0,0,0,,,,,,,,,,,,,,,,,0,8,8,8,,,,,,,,,,,,,,,,,,,,,,,,,,,,,204.96804037500988,,,,,,,,,,,,,206.83302512500086,j,0,207.37492737499997,None,,,,,,,,,,,,,,,,,,,,,,,1,,,,2024-05-20_15h59.38.842,SceneCat_2023_2_key_resp,2024.1.1,None,2024-05-20 15h59.45.525800 +0200,
stimuli/img_xt3jt.jpg,f,,1,0,0,0,0,0,1,categorization,1,1,10,10,living_room,living_room,target,61.4242424242424,40.8181818181818,33,51.1212121212121,114,low,,,,,,,,,,,0,0,0,0,,,,,,,,,,,,,,,,,0,9,9,9,,,,,,,,,,,,,,,,,,,,,,,,,,,,,207.38771562500915,,,,,,,,,,,,,209.3053719580057,j,0,209.79506070799835,None,,,,,,,,,,,,,,,,,,,,,,,1,,,,2024-05-20_15h59.38.842,SceneCat_2023_2_key_resp,2024.1.1,None,2024-05-20 15h59.45.525800 +0200,
stimuli/img_00ojb.jpg,f,,1,0,0,0,0,0,1,categorization,1,1,11,11,living_room,living_room,target,82.2702702702703,67.4324324324324,37,74.8513513513514,239,high,,,,,,,,,,,0,0,0,0,,,,,,,,,,,,,,,,,0,10,10,10,,,,,,,,,,,,,,,,,,,,,,,,,,,,,209.81210770799953,,,,,,,,,,,,,211.08844258300087,j,0,211.60509633300535,None,,,,,,,,,,,,,,,,,,,,,,,1,,,,2024-05-20_15h59.38.842,SceneCat_2023_2_key_resp,2024.1.1,None,2024-05-20 15h59.45.525800 +0200,
stimuli/img_fmgjx.jpg,f,,1,0,0,0,0,0,1,categorization,1,1,12,12,living_room,living_room,target,81.5333333333333,56.0666666666667,30,68.8,199,high,,,,,,,,,,,0,0,0,0,,,,,,,,,,,,,,,,,0,11,11,11,,,,,,,,,,,,,,,,,,,,,,,,,,,,,211.63466870800767,,,,,,,,,,,,,213.53965062499628,j,0,213.99750295800914,None,,,,,,,,,,,,,,,,,,,,,,,1,,,,2024-05-20_15h59.38.842,SceneCat_2023_2_key_resp,2024.1.1,None,2024-05-20 15h59.45.525800 +0200,
stimuli/img_fud7l.jpg,j,,1,0,0,0,0,0,1,categorization,1,1,13,13,living_room,kitchen,distractor,57.3846153846154,45.1153846153846,26,51.25,204,low,,,,,,,,,,,0,0,0,0,,,,,,,,,,,,,,,,,0,12,12,12,,,,,,,,,,,,,,,,,,,,,,,,,,,,,214.0117456660082,,,,,,,,,,,,,215.78850283300562,j,1,216.47290712500399,None,,,,,,,,,,,,,,,,,,,,,,,1,,,,2024-05-20_15h59.38.842,SceneCat_2023_2_key_resp,2024.1.1,None,2024-05-20 15h59.45.525800 +0200,
stimuli/img_u1i9n.jpg,j,,1,0,0,0,0,0,1,categorization,1,1,14,14,living_room,kitchen,distractor,87.4516129032258,61.5161290322581,31,74.4838709677419,648,high,,,,,,,,,,,0,0,0,0,,,,,,,,,,,,,,,,,0,13,13,13,,,,,,,,,,,,,,,,,,,,,,,,,,,,,216.48525008300203,,,,,,,,,,,,,218.45013829100935,j,1,219.02441425000143,None,,,,,,,,,,,,,,,,,,,,,,,1,,,,2024-05-20_15h59.38.842,SceneCat_2023_2_key_resp,2024.1.1,None,2024-05-20 15h59.45.525800 +0200,
stimuli/img_t4sid.jpg,j,,1,0,0,0,0,0,1,categorization,1,1,15,15,living_room,kitchen,distractor,59.6206896551724,36,29,47.8103448275862,168,low,,,,,,,,,,,0,0,0,0,,,,,,,,,,,,,,,,,0,14,14,14,,,,,,,,,,,,,,,,,,,,,,,,,,,,,219.051286832997,,,,,,,,,,,,,220.68194395799947,j,1,221.25732083299954,None,,,,,,,,,,,,,,,,,,,,,,,1,,,,2024-05-20_15h59.38.842,SceneCat_2023_2_key_resp,2024.1.1,None,2024-05-20 15h59.45.525800 +0200,
stimuli/img_o2lar.jpg,f,,1,0,0,0,0,0,1,categorization,1,1,16,16,living_room,living_room,target,45.1935483870968,34.6129032258064,31,39.9032258064516,67,low,,,,,,,,,,,0,0,0,0,,,,,,,,,,,,,,,,,0,15,15,15,,,,,,,,,,,,,,,,,,,,,,,,,,,,,221.27103650000936,,,,,,,,,,,,,222.65063841600204,j,0,223.5707619580062,None,223.39098341600038,,,,,,,,,,,,,,,,,,,,,,1,,,,2024-05-20_15h59.38.842,SceneCat_2023_2_key_resp,2024.1.1,None,2024-05-20 15h59.45.525800 +0200,
stimuli/img_wwe90.jpg,j,,1,0,0,0,0,0,1,categorization,1,1,17,17,living_room,bedroom,distractor,69.6111111111111,51.1111111111111,36,60.3611111111111,220,low,,,,,,,,,,,0,0,0,0,,,,,,,,,,,,,,,,,0,16,16,16,,,,,,,,,,,,,,,,,,,,,,,,,,,,,223.60179775000142,,,,,,,,,,,,,224.68448974999774,j,1,225.09901512500073,None,,,,,,,,,,,,,,,,,,,,,,,1,,,,2024-05-20_15h59.38.842,SceneCat_2023_2_key_resp,2024.1.1,None,2024-05-20 15h59.45.525800 +0200,
stimuli/img_u5hpm.jpg,j,,1,0,0,0,0,0,1,categorization,1,1,18,18,living_room,kitchen,distractor,67.3513513513514,39.1891891891892,37,53.2702702702703,228,low,,,,,,,,,,,0,0,0,0,,,,,,,,,,,,,,,,,0,17,17,17,,,,,,,,,,,,,,,,,,,,,,,,,,,,,225.11218162500882,,,,,,,,,,,,,226.6163749999978,j,1,230.98609466600465,None,227.3578034999955,,,,,,,,,,,,,,,,,,,,,,1,,,,2024-05-20_15h59.38.842,SceneCat_2023_2_key_resp,2024.1.1,None,2024-05-20 15h59.45.525800 +0200,
stimuli/img_xib79.jpg,f,,1,0,0,0,0,0,1,categorization,1,1,19,19,living_room,living_room,target,79.0322580645161,51.8387096774194,31,65.4354838709677,178,high,,,,,,,,,,,0,0,0,0,,,,,,,,,,,,,,,,,0,18,18,18,,,,,,,,,,,,,,,,,,,,,,,,,,,,,231.00227370799985,,,,,,,,,,,,,232.86675358300272,j,0,None,None,,,,,,,,,,,,,,,,,,,,,,,1,,,,2024-05-20_15h59.38.842,SceneCat_2023_2_key_resp,2024.1.1,None,2024-05-20 15h59.45.525800 +0200,
stimuli/img_8297a.jpg,f,,1,0,0,0,0,0,1,categorization,1,1,20,20,living_room,living_room,target,92.0882352941177,76.3823529411765,34,84.2352941176471,288,high,,,,,,,,,,,0,0,0,0,,,,,,,,,,,,,,,,,0,19,19,19,,,,,,,,,,,,,,,,,,,,,,,,,,,,,233.26051449999795,,,,,,,,,,,,,234.33283858299546,j,0,235.25529520800046,None,235.07565787500062,,,,,,,,,,,,,,,,,,,,,,1,,,,2024-05-20_15h59.38.842,SceneCat_2023_2_key_resp,2024.1.1,None,2024-05-20 15h59.45.525800 +0200,
stimuli/img_16kib.jpg,f,,1,0,0,0,0,0,1,categorization,1,1,21,21,living_room,living_room,target,81.2647058823529,58.8235294117647,34,70.0441176470588,204,high,,,,,,,,,,,0,0,0,0,,,,,,,,,,,,,,,,,0,20,20,20,,,,,,,,,,,,,,,,,,,,,,,,,,,,,235.27143354099826,,,,,,,,,,,,,236.34981491600047,j,0,236.75925512499816,None,,,,,,,,,,,,,,,,,,,,,,,1,,,,2024-05-20_15h59.38.842,SceneCat_2023_2_key_resp,2024.1.1,None,2024-05-20 15h59.45.525800 +0200,
stimuli/img_9ro1y.jpg,f,,1,0,0,0,0,0,1,categorization,1,1,22,22,living_room,living_room,target,66.9473684210526,49.2105263157895,38,58.0789473684211,144,low,,,,,,,,,,,0,0,0,0,,,,,,,,,,,,,,,,,0,21,21,21,,,,,,,,,,,,,,,,,,,,,,,,,,,,,236.77753929099708,,,,,,,,,,,,,238.50668175000465,j,0,239.2170009160036,None,,,,,,,,,,,,,,,,,,,,,,,1,,,,2024-05-20_15h59.38.842,SceneCat_2023_2_key_resp,2024.1.1,None,2024-05-20 15h59.45.525800 +0200,
stimuli/img_kf7vw.jpg,f,,1,0,0,0,0,0,1,categorization,1,1,23,23,living_room,living_room,target,88.3142857142857,59.5142857142857,35,73.9142857142857,227,high,,,,,,,,,,,0,0,0,0,,,,,,,,,,,,,,,,,0,22,22,22,,,,,,,,,,,,,,,,,,,,,,,,,,,,,239.22949974999938,,,,,,,,,,,,,240.99875616600912,j,0,241.4701186660095,None,,,,,,,,,,,,,,,,,,,,,,,1,,,,2024-05-20_15h59.38.842,SceneCat_2023_2_key_resp,2024.1.1,None,2024-05-20 15h59.45.525800 +0200,
stimuli/img_gnxyk.jpg,f,,1,0,0,0,0,0,1,categorization,1,1,24,24,living_room,living_room,target,86.4864864864865,72.4054054054054,37,79.4459459459459,269,high,,,,,,,,,,,0,0,0,0,,,,,,,,,,,,,,,,,0,23,23,23,,,,,,,,,,,,,,,,,,,,,,,,,,,,,241.4887364160095,,,,,,,,,,,,,243.4558723329974,j,0,244.27631950000068,None,244.20193441600713,,,,,,,,,,,,,,,,,,,,,,1,,,,2024-05-20_15h59.38.842,SceneCat_2023_2_key_resp,2024.1.1,None,2024-05-20 15h59.45.525800 +0200,
stimuli/img_jpldg.jpg,f,,1,0,0,0,0,0,1,categorization,1,1,25,25,living_room,living_room,target,81.7878787878788,58.1212121212121,33,69.9545454545455,203,high,,,,,,,,,,,0,0,0,0,,,,,,,,,,,,,,,,,0,24,24,24,,,,,,,,,,,,,,,,,,,,,,,,,,,,,244.29447516599612,,,,,,,,,,,,,246.08898208300525,j,0,246.48981025000103,None,,,,,,,,,,,,,,,,,,,,,,,1,,,,2024-05-20_15h59.38.842,SceneCat_2023_2_key_resp,2024.1.1,None,2024-05-20 15h59.45.525800 +0200,
stimuli/img_a6u3n.jpg,f,,1,0,0,0,0,0,1,categorization,1,1,26,26,living_room,living_room,target,82.6666666666667,61.1212121212121,33,71.8939393939394,215,high,,,,,,,,,,,0,0,0,0,,,,,,,,,,,,,,,,,0,25,25,25,,,,,,,,,,,,,,,,,,,,,,,,,,,,,246.51915333300713,,,,,,,,,,,,,248.30718320800224,j,0,248.79359499999555,None,,,,,,,,,,,,,,,,,,,,,,,1,,,,2024-05-20_15h59.38.842,SceneCat_2023_2_key_resp,2024.1.1,None,2024-05-20 15h59.45.525800 +0200,
stimuli/img_bbs77.jpg,f,,1,0,0,0,0,0,1,categorization,1,1,27,27,living_room,living_room,target,28.7777777777778,19.0555555555556,36,23.9166666666667,29,low,,,,,,,,,,,0,0,0,0,,,,,,,,,,,,,,,,,0,26,26,26,,,,,,,,,,,,,,,,,,,,,,,,,,,,,248.81132412499574,,,,,,,,,,,,,250.21718054100347,j,0,250.4937630409986,None,,,,,,,,,,,,,,,,,,,,,,,1,,,,2024-05-20_15h59.38.842,SceneCat_2023_2_key_resp,2024.1.1,None,2024-05-20 15h59.45.525800 +0200,
stimuli/img_qwtnc.jpg,j,,1,0,0,0,0,0,1,categorization,1,1,28,28,living_room,kitchen,distractor,61.2162162162162,32.5945945945946,37,46.9054054054054,156,low,,,,,,,,,,,0,0,0,0,,,,,,,,,,,,,,,,,0,27,27,27,,,,,,,,,,,,,,,,,,,,,,,,,,,,,250.55203099999926,,,,,,,,,,,,,252.00611895800103,j,1,252.33968795799592,None,,,,,,,,,,,,,,,,,,,,,,,1,,,,2024-05-20_15h59.38.842,SceneCat_2023_2_key_resp,2024.1.1,None,2024-05-20 15h59.45.525800 +0200,
stimuli/img_jpldg.jpg,j,,1,0,0,0,0,0,1,memory,None,None,None,None,None,living_room,None,81.7878787878788,58.1212121212121,33,69.9545454545455,203,high,new,1,,,,,,,,,0,0,0,0,,,,,,,,,,,,,,,,,,,,,0,0,0,0,,,,,,,,,,,,,,,,,,,,,,,,,252.37096316600218,,,,,,,,,,,,,,,,,,,j,256.2433630000014,None,,,,,,,,,,,,,,,,,,,1,,,,2024-05-20_15h59.38.842,SceneCat_2023_2_key_resp,2024.1.1,None,2024-05-20 15h59.45.525800 +0200,
stimuli/img_o2lar.jpg,f,,1,0,0,0,0,0,1,memory,1,1,16,16,living_room,living_room,target,45.1935483870968,34.6129032258064,31,39.9032258064516,67,low,old,2,,,,,,,,,0,0,0,0,,,,,,,,,,,,,,,,,,,,,0,1,1,1,,,,,,,,,,,,,,,,,,,,,,,,,256.26894045800145,,,,,,,,,,,,,,,,,,,j,257.6619665000035,None,,,,,,,,,,,,,,,,,,,1,,,,2024-05-20_15h59.38.842,SceneCat_2023_2_key_resp,2024.1.1,None,2024-05-20 15h59.45.525800 +0200,
stimuli/img_00ojb.jpg,f,,1,0,0,0,0,0,1,memory,1,1,11,11,living_room,living_room,target,82.2702702702703,67.4324324324324,37,74.8513513513514,239,high,old,3,,,,,,,,,0,0,0,0,,,,,,,,,,,,,,,,,,,,,0,2,2,2,,,,,,,,,,,,,,,,,,,,,,,,,257.7747583750024,,,,,,,,,,,,,,,,,,,j,259.42610641600913,None,,,,,,,,,,,,,,,,,,,1,,,,2024-05-20_15h59.38.842,SceneCat_2023_2_key_resp,2024.1.1,None,2024-05-20 15h59.45.525800 +0200,
stimuli/vfghbvgh.jpg,j,,1,0,0,0,0,0,1,memory,None,None,None,None,None,None,None,None,None,None,None,None,None,catch,4,,,,,,,,,0,0,0,0,,,,,,,,,,,,,,,,,,,,,0,3,3,3,,,,,,,,,,,,,,,,,,,,,,,,,259.5074659160018,,,,,,,,,,,,,,,,,,,j,261.65412962500704,None,,,,,,,,,,,,,,,,,,,1,,,,2024-05-20_15h59.38.842,SceneCat_2023_2_key_resp,2024.1.1,None,2024-05-20 15h59.45.525800 +0200,
stimuli/img_kost0.jpg,f,,1,0,0,0,0,0,1,memory,1,1,9,9,living_room,living_room,target,64.3030303030303,41.3636363636364,33,52.8333333333333,121,low,old,5,,,,,,,,,0,0,0,0,,,,,,,,,,,,,,,,,,,,,0,4,4,4,,,,,,,,,,,,,,,,,,,,,,,,,261.6728143750079,,,,,,,,,,,,,,,,,,,j,263.7746150000021,None,,,,,,,,,,,,,,,,,,,1,,,,2024-05-20_15h59.38.842,SceneCat_2023_2_key_resp,2024.1.1,None,2024-05-20 15h59.45.525800 +0200,
stimuli/img_0t206.jpg,j,,1,0,0,0,0,0,1,memory,None,None,None,None,None,living_room,None,89.8888888888889,69.1944444444444,36,79.5416666666667,270,high,new,6,,,,,,,,,0,0,0,0,,,,,,,,,,,,,,,,,,,,,0,5,5,5,,,,,,,,,,,,,,,,,,,,,,,,,263.80249445799564,,,,,,,,,,,,,,,,,,,j,265.8245385830087,None,,,,,,,,,,,,,,,,,,,1,,,,2024-05-20_15h59.38.842,SceneCat_2023_2_key_resp,2024.1.1,None,2024-05-20 15h59.45.525800 +0200,
stimuli/gfdfghjgf.jpg,j,,1,0,0,0,0,0,1,memory,None,None,None,None,None,None,None,None,None,None,None,None,None,catch,7,,,,,,,,,0,0,0,0,,,,,,,,,,,,,,,,,,,,,0,6,6,6,,,,,,,,,,,,,,,,,,,,,,,,,265.8363731660065,,,,,,,,,,,,,,,,,,,j,267.37083337499644,None,,,,,,,,,,,,,,,,,,,1,,,,2024-05-20_15h59.38.842,SceneCat_2023_2_key_resp,2024.1.1,None,2024-05-20 15h59.45.525800 +0200,
stimuli/img_16kib.jpg,f,,1,0,0,0,0,0,1,memory,1,1,21,21,living_room,living_room,target,81.2647058823529,58.8235294117647,34,70.0441176470588,204,high,old,8,,,,,,,,,0,0,0,0,,,,,,,,,,,,,,,,,,,,,0,7,7,7,,,,,,,,,,,,,,,,,,,,,,,,,267.3861704160081,,,,,,,,,,,,,,,,,,,j,268.7173612500046,None,,,,,,,,,,,,,,,,,,,1,,,,2024-05-20_15h59.38.842,SceneCat_2023_2_key_resp,2024.1.1,None,2024-05-20 15h59.45.525800 +0200,
stimuli/img_xr3up.jpg,f,,1,0,0,0,0,0,1,memory,1,1,5,5,living_room,living_room,target,75.2439024390244,53.4146341463415,41,64.3292682926829,176,high,old,9,,,,,,,,,0,0,0,0,,,,,,,,,,,,,,,,,,,,,0,8,8,8,,,,,,,,,,,,,,,,,,,,,,,,,268.7360176660004,,,,,,,,,,,,,,,,,,,j,270.75443566600734,None,,,,,,,,,,,,,,,,,,,1,,,,2024-05-20_15h59.38.842,SceneCat_2023_2_key_resp,2024.1.1,None,2024-05-20 15h59.45.525800 +0200,
stimuli/img_gnxyk.jpg,f,,1,0,0,0,0,0,1,memory,1,1,24,24,living_room,living_room,target,86.4864864864865,72.4054054054054,37,79.4459459459459,269,high,old,10,,,,,,,,,0,0,0,0,,,,,,,,,,,,,,,,,,,,,0,9,9,9,,,,,,,,,,,,,,,,,,,,,,,,,270.7746263750014,,,,,,,,,,,,,,,,,,,j,272.3222545410099,None,,,,,,,,,,,,,,,,,,,1,,,,2024-05-20_15h59.38.842,SceneCat_2023_2_key_resp,2024.1.1,None,2024-05-20 15h59.45.525800 +0200,
stimuli/img_wwmp0.jpg,j,,1,0,0,0,0,0,1,memory,None,None,None,None,None,living_room,None,81.0909090909091,61.3939393939394,33,71.2424242424242,211,high,new,11,,,,,,,,,0,0,0,0,,,,,,,,,,,,,,,,,,,,,0,10,10,10,,,,,,,,,,,,,,,,,,,,,,,,,272.33650420799677,,,,,,,,,,,,,,,,,,,j,274.5302956660016,None,,,,,,,,,,,,,,,,,,,1,,,,2024-05-20_15h59.38.842,SceneCat_2023_2_key_resp,2024.1.1,None,2024-05-20 15h59.45.525800 +0200,
stimuli/img_xt3jt.jpg,f,,1,0,0,0,0,0,1,memory,1,1,10,10,living_room,living_room,target,61.4242424242424,40.8181818181818,33,51.1212121212121,114,low,old,12,,,,,,,,,0,0,0,0,,,,,,,,,,,,,,,,,,,,,0,11,11,11,,,,,,,,,,,,,,,,,,,,,,,,,274.54038866600604,,,,,,,,,,,,,,,,,,,j,275.7390598330094,None,,,,,,,,,,,,,,,,,,,1,,,,2024-05-20_15h59.38.842,SceneCat_2023_2_key_resp,2024.1.1,None,2024-05-20 15h59.45.525800 +0200,
stimuli/img_hc7o8.jpg,f,,1,0,0,0,0,0,1,memory,1,1,6,6,living_room,living_room,target,35.2068965517241,36.4137931034483,29,35.8103448275862,56,low,old,13,,,,,,,,,0,0,0,0,,,,,,,,,,,,,,,,,,,,,0,12,12,12,,,,,,,,,,,,,,,,,,,,,,,,,275.7527658750041,,,,,,,,,,,,,,,,,,,j,278.2139727909962,None,,,,,,,,,,,,,,,,,,,1,,,,2024-05-20_15h59.38.842,SceneCat_2023_2_key_resp,2024.1.1,None,2024-05-20 15h59.45.525800 +0200,
stimuli/img_9ro1y.jpg,f,,1,0,0,0,0,0,1,memory,1,1,22,22,living_room,living_room,target,66.9473684210526,49.2105263157895,38,58.0789473684211,144,low,old,14,,,,,,,,,0,0,0,0,,,,,,,,,,,,,,,,,,,,,0,13,13,13,,,,,,,,,,,,,,,,,,,,,,,,,278.23645762499655,,,,,,,,,,,,,,,,,,,j,280.6909950410045,None,,,,,,,,,,,,,,,,,,,1,,,,2024-05-20_15h59.38.842,SceneCat_2023_2_key_resp,2024.1.1,None,2024-05-20 15h59.45.525800 +0200,
stimuli/img_k0m56.jpg,f,,1,0,0,0,0,0,1,memory,1,1,1,1,living_room,living_room,target,76.0277777777778,49.9722222222222,36,63,168,high,old,15,,,,,,,,,0,0,0,0,,,,,,,,,,,,,,,,,,,,,0,14,14,14,,,,,,,,,,,,,,,,,,,,,,,,,280.7116433750052,,,,,,,,,,,,,,,,,,,j,287.7458892910072,None,,,,,,,,,,,,,,,,,,,1,,,,2024-05-20_15h59.38.842,SceneCat_2023_2_key_resp,2024.1.1,None,2024-05-20 15h59.45.525800 +0200,
stimuli/img_injp0.jpg,f,,1,0,0,0,0,0,1,memory,1,1,7,7,living_room,living_room,target,63.65625,30.5,32,47.078125,95,low,old,16,,,,,,,,,0,0,0,0,,,,,,,,,,,,,,,,,,,,,0,15,15,15,,,,,,,,,,,,,,,,,,,,,,,,,287.7585080830031,,,,,,,,,,,,,,,,,,,j,288.8785336250003,None,,,,,,,,,,,,,,,,,,,1,,,,2024-05-20_15h59.38.842,SceneCat_2023_2_key_resp,2024.1.1,None,2024-05-20 15h59.45.525800 +0200,
stimuli/img_a6u3n.jpg,f,,1,0,0,0,0,0,1,memory,1,1,26,26,living_room,living_room,target,82.6666666666667,61.1212121212121,33,71.8939393939394,215,high,old,17,,,,,,,,,0,0,0,0,,,,,,,,,,,,,,,,,,,,,0,16,16,16,,,,,,,,,,,,,,,,,,,,,,,,,288.9040893330093,,,,,,,,,,,,,,,,,,,j,290.94578254100634,None,,,,,,,,,,,,,,,,,,,1,,,,2024-05-20_15h59.38.842,SceneCat_2023_2_key_resp,2024.1.1,None,2024-05-20 15h59.45.525800 +0200,
stimuli/img_bbs77.jpg,f,,1,0,0,0,0,0,1,memory,1,1,27,27,living_room,living_room,target,28.7777777777778,19.0555555555556,36,23.9166666666667,29,low,old,18,,,,,,,,,0,0,0,0,,,,,,,,,,,,,,,,,,,,,0,17,17,17,,,,,,,,,,,,,,,,,,,,,,,,,290.96992695800145,,,,,,,,,,,,,,,,,,,j,292.32333479099907,None,,,,,,,,,,,,,,,,,,,1,,,,2024-05-20_15h59.38.842,SceneCat_2023_2_key_resp,2024.1.1,None,2024-05-20 15h59.45.525800 +0200,
stimuli/img_m59op.jpg,j,,1,0,0,0,0,0,1,memory,None,None,None,None,None,living_room,None,63.9142857142857,46.9714285714286,35,55.4428571428571,133,low,new,19,,,,,,,,,0,0,0,0,,,,,,,,,,,,,,,,,,,,,0,18,18,18,,,,,,,,,,,,,,,,,,,,,,,,,292.3419211250002,,,,,,,,,,,,,,,,,,,j,294.64208074999624,None,,,,,,,,,,,,,,,,,,,1,,,,2024-05-20_15h59.38.842,SceneCat_2023_2_key_resp,2024.1.1,None,2024-05-20 15h59.45.525800 +0200,
stimuli/img_73pyk.jpg,j,,1,0,0,0,0,0,1,memory,None,None,None,None,None,living_room,None,70.7837837837838,47.1351351351351,37,58.9594594594595,147,high,new,20,,,,,,,,,0,0,0,0,,,,,,,,,,,,,,,,,,,,,0,19,19,19,,,,,,,,,,,,,,,,,,,,,,,,,294.6532951249974,,,,,,,,,,,,,,,,,,,j,296.3055254579958,None,,,,,,,,,,,,,,,,,,,1,,,,2024-05-20_15h59.38.842,SceneCat_2023_2_key_resp,2024.1.1,None,2024-05-20 15h59.45.525800 +0200,
stimuli/img_i2l9a.jpg,j,,1,0,0,0,0,0,1,memory,None,None,None,None,None,living_room,None,22.3823529411765,17.5294117647059,34,19.9558823529412,17,low,new,21,,,,,,,,,0,0,0,0,,,,,,,,,,,,,,,,,,,,,0,20,20,20,,,,,,,,,,,,,,,,,,,,,,,,,296.4138248329982,,,,,,,,,,,,,,,,,,,j,298.1137066250085,None,,,,,,,,,,,,,,,,,,,1,,,,2024-05-20_15h59.38.842,SceneCat_2023_2_key_resp,2024.1.1,None,2024-05-20 15h59.45.525800 +0200,
stimuli/img_89dvt.jpg,f,,1,0,0,0,0,0,1,memory,1,1,2,2,living_room,living_room,target,79.9032258064516,63,31,71.4516129032258,212,high,old,22,,,,,,,,,0,0,0,0,,,,,,,,,,,,,,,,,,,,,0,21,21,21,,,,,,,,,,,,,,,,,,,,,,,,,298.1368812080036,,,,,,,,,,,,,,,,,,,j,300.0969839580066,None,,,,,,,,,,,,,,,,,,,1,,,,2024-05-20_15h59.38.842,SceneCat_2023_2_key_resp,2024.1.1,None,2024-05-20 15h59.45.525800 +0200,
stimuli/img_kf7vw.jpg,f,,1,0,0,0,0,0,1,memory,1,1,23,23,living_room,living_room,target,88.3142857142857,59.5142857142857,35,73.9142857142857,227,high,old,23,,,,,,,,,0,0,0,0,,,,,,,,,,,,,,,,,,,,,0,22,22,22,,,,,,,,,,,,,,,,,,,,,,,,,300.1203007080039,,,,,,,,,,,,,,,,,,,j,302.377406915999,None,,,,,,,,,,,,,,,,,,,1,,,,2024-05-20_15h59.38.842,SceneCat_2023_2_key_resp,2024.1.1,None,2024-05-20 15h59.45.525800 +0200,
stimuli/img_fejeo.jpg,f,,1,0,0,0,0,0,1,memory,1,1,8,8,living_room,living_room,target,81.0294117647059,65.3235294117647,34,73.1764705882353,223,high,old,24,,,,,,,,,0,0,0,0,,,,,,,,,,,,,,,,,,,,,0,23,23,23,,,,,,,,,,,,,,,,,,,,,,,,,302.4036973750044,,,,,,,,,,,,,,,,,,,j,304.5737549159967,None,,,,,,,,,,,,,,,,,,,1,,,,2024-05-20_15h59.38.842,SceneCat_2023_2_key_resp,2024.1.1,None,2024-05-20 15h59.45.525800 +0200,
stimuli/img_hfj08.jpg,f,,1,0,0,0,0,0,1,memory,1,1,4,4,living_room,living_room,target,86.5897435897436,60.6410256410256,39,73.6153846153846,225,high,old,25,,,,,,,,,0,0,0,0,,,,,,,,,,,,,,,,,,,,,0,24,24,24,,,,,,,,,,,,,,,,,,,,,,,,,304.59237466599734,,,,,,,,,,,,,,,,,,,j,306.71934445800434,None,,,,,,,,,,,,,,,,,,,1,,,,2024-05-20_15h59.38.842,SceneCat_2023_2_key_resp,2024.1.1,None,2024-05-20 15h59.45.525800 +0200,
stimuli/img_xib79.jpg,f,,1,0,0,0,0,0,1,memory,1,1,19,19,living_room,living_room,target,79.0322580645161,51.8387096774194,31,65.4354838709677,178,high,old,26,,,,,,,,,0,0,0,0,,,,,,,,,,,,,,,,,,,,,0,25,25,25,,,,,,,,,,,,,,,,,,,,,,,,,306.7372922079958,,,,,,,,,,,,,,,,,,,j,309.7581855000026,None,,,,,,,,,,,,,,,,,,,1,,,,2024-05-20_15h59.38.842,SceneCat_2023_2_key_resp,2024.1.1,None,2024-05-20 15h59.45.525800 +0200,
stimuli/img_fmgjx.jpg,f,,1,0,0,0,0,0,1,memory,1,1,12,12,living_room,living_room,target,81.5333333333333,56.0666666666667,30,68.8,199,high,old,27,,,,,,,,,0,0,0,0,,,,,,,,,,,,,,,,,,,,,0,26,26,26,,,,,,,,,,,,,,,,,,,,,,,,,309.77032658300595,,,,,,,,,,,,,,,,,,,j,311.41457483300474,None,,,,,,,,,,,,,,,,,,,1,,,,2024-05-20_15h59.38.842,SceneCat_2023_2_key_resp,2024.1.1,None,2024-05-20 15h59.45.525800 +0200,
stimuli/img_jpldg.jpg,f,,1,0,0,0,0,0,1,memory,1,1,25,25,living_room,living_room,target,81.7878787878788,58.1212121212121,33,69.9545454545455,203,high,old,28,,,,,,,,,0,0,0,0,,,,,,,,,,,,,,,,,,,,,0,27,27,27,,,,,,,,,,,,,,,,,,,,,,,,,311.4301417910028,,,,,,,,,,,,,,,,,,,j,313.58883695800614,None,,,,,,,,,,,,,,,,,,,1,,,,2024-05-20_15h59.38.842,SceneCat_2023_2_key_resp,2024.1.1,None,2024-05-20 15h59.45.525800 +0200,
stimuli/img_53nbn.jpg,j,,1,0,0,0,0,0,1,memory,None,None,None,None,None,living_room,None,73.7647058823529,51.2647058823529,34,62.5147058823529,166,high,new,29,,,,,,,,,0,0,0,0,,,,,,,,,,,,,,,,,,,,,0,28,28,28,,,,,,,,,,,,,,,,,,,,,,,,,313.60894637499587,,,,,,,,,,,,,,,,,,,j,315.1396953329968,None,,,,,,,,,,,,,,,,,,,1,,,,2024-05-20_15h59.38.842,SceneCat_2023_2_key_resp,2024.1.1,None,2024-05-20 15h59.45.525800 +0200,
stimuli/img_8297a.jpg,f,,1,0,0,0,0,0,1,memory,1,1,20,20,living_room,living_room,target,92.0882352941177,76.3823529411765,34,84.2352941176471,288,high,old,30,,,,,,,,,0,0,0,0,,,,,,,,,,,,,,,,,,,,,0,29,29,29,,,,,,,,,,,,,,,,,,,,,,,,,315.1585470830032,,,,,,,,,,,,,,,,,,,j,None,None,,,,,,,,,,,,,,,,,,,1,,,,2024-05-20_15h59.38.842,SceneCat_2023_2_key_resp,2024.1.1,None,2024-05-20 15h59.45.525800 +0200,
,,,1,0,0,0,0,0,,,,,,,,,,,,,,,,,,,,,,,,,,0,0,0,0,,,,,,,,,,,,,,,,,,,,,,,,,,,,,,,,,,,,,,,,,,,,,,,,,,,,,,,,,,,,,,,,,,,,,,,,,,,,,,,,,,,,,,,,,1,,,,2024-05-20_15h59.38.842,SceneCat_2023_2_key_resp,2024.1.1,None,2024-05-20 15h59.45.525800 +0200,
stimuli/img_2na1o.jpg,f,,0,1,0,0,0,0,1,categorization,2,1,1,29,kitchen,kitchen,target,65.3783783783784,50.3243243243243,37,57.8513513513513,295,low,,,,,,,,,,,0,1,1,1,0,0,0,0,,,,,,,,,,,,,,,,,,,,,,,,,,,,,,,,,,,,,,,,,,,,,319.26331362500787,,,,,,,,,,,,,,,,,,,,,,322.535741041007,j,0,323.07893425000657,None,,,,,,,,,,,,,,1,,,,2024-05-20_15h59.38.842,SceneCat_2023_2_key_resp,2024.1.1,None,2024-05-20 15h59.45.525800 +0200,
stimuli/img_swx2d.jpg,f,,0,1,0,0,0,0,1,categorization,2,1,2,30,kitchen,kitchen,target,69.90625,33.6875,32,51.796875,208,low,,,,,,,,,,,0,1,1,1,0,1,1,1,,,,,,,,,,,,,,,,,,,,,,,,,,,,,,,,,,,,,,,,,,,,,323.09724583300704,,,,,,,,,,,,,,,,,,,,,,324.4922951250046,j,0,324.828012708007,None,,,,,,,,,,,,,,1,,,,2024-05-20_15h59.38.842,SceneCat_2023_2_key_resp,2024.1.1,None,2024-05-20 15h59.45.525800 +0200,
stimuli/img_rych7.jpg,j,,0,1,0,0,0,0,1,categorization,2,1,3,31,kitchen,living_room,distractor,30.9444444444444,25.3888888888889,36,28.1666666666667,41,low,,,,,,,,,,,0,1,1,1,0,2,2,2,,,,,,,,,,,,,,,,,,,,,,,,,,,,,,,,,,,,,,,,,,,,,324.84057220800605,,,,,,,,,,,,,,,,,,,,,,325.90102554099576,j,1,326.1727166250057,None,,,,,,,,,,,,,,1,,,,2024-05-20_15h59.38.842,SceneCat_2023_2_key_resp,2024.1.1,None,2024-05-20 15h59.45.525800 +0200,
stimuli/img_1m0fn.jpg,f,,0,1,0,0,0,0,1,categorization,2,1,4,32,kitchen,kitchen,target,82.1333333333333,66.8333333333333,30,74.4833333333333,647,high,,,,,,,,,,,0,1,1,1,0,3,3,3,,,,,,,,,,,,,,,,,,,,,,,,,,,,,,,,,,,,,,,,,,,,,326.2374869159976,,,,,,,,,,,,,,,,,,,,,,328.2094392910076,j,0,328.51721725000243,None,,,,,,,,,,,,,,1,,,,2024-05-20_15h59.38.842,SceneCat_2023_2_key_resp,2024.1.1,None,2024-05-20 15h59.45.525800 +0200,
stimuli/img_vbrb7.jpg,f,,0,1,0,0,0,0,1,categorization,2,1,5,33,kitchen,kitchen,target,84.7857142857143,74.1071428571429,28,79.4464285714286,713,high,,,,,,,,,,,0,1,1,1,0,4,4,4,,,,,,,,,,,,,,,,,,,,,,,,,,,,,,,,,,,,,,,,,,,,,328.5470296249987,,,,,,,,,,,,,,,,,,,,,,329.77506141600315,j,0,330.1317712910095,None,,,,,,,,,,,,,,1,,,,2024-05-20_15h59.38.842,SceneCat_2023_2_key_resp,2024.1.1,None,2024-05-20 15h59.45.525800 +0200,
stimuli/img_diq9d.jpg,f,,0,1,0,0,0,0,1,categorization,2,1,6,34,kitchen,kitchen,target,81,65.6046511627907,43,73.3023255813954,619,high,,,,,,,,,,,0,1,1,1,0,5,5,5,,,,,,,,,,,,,,,,,,,,,,,,,,,,,,,,,,,,,,,,,,,,,330.1491731660062,,,,,,,,,,,,,,,,,,,,,,331.8350498750078,j,0,None,None,,,,,,,,,,,,,,1,,,,2024-05-20_15h59.38.842,SceneCat_2023_2_key_resp,2024.1.1,None,2024-05-20 15h59.45.525800 +0200,
stimuli/img_78zcn.jpg,f,,0,1,0,0,0,0,1,categorization,2,1,7,35,kitchen,kitchen,target,69.4814814814815,44.2592592592593,27,56.8703703703704,278,low,,,,,,,,,,,0,1,1,1,0,6,6,6,,,,,,,,,,,,,,,,,,,,,,,,,,,,,,,,,,,,,,,,,,,,,332.27089441599674,,,,,,,,,,,,,,,,,,,,,,334.26847762500984,j,0,334.9107439579966,None,,,,,,,,,,,,,,1,,,,2024-05-20_15h59.38.842,SceneCat_2023_2_key_resp,2024.1.1,None,2024-05-20 15h59.45.525800 +0200,
stimuli/img_m2gan.jpg,f,,0,1,0,0,0,0,1,categorization,2,1,8,36,kitchen,kitchen,target,76.2121212121212,54.2424242424242,33,65.2272727272727,446,high,,,,,,,,,,,0,1,1,1,0,7,7,7,,,,,,,,,,,,,,,,,,,,,,,,,,,,,,,,,,,,,,,,,,,,,334.938646124996,,,,,,,,,,,,,,,,,,,,,,336.3692702910048,j,0,336.98574525000004,None,,,,,,,,,,,,,,1,,,,2024-05-20_15h59.38.842,SceneCat_2023_2_key_resp,2024.1.1,None,2024-05-20 15h59.45.525800 +0200,
stimuli/img_wixv2.jpg,j,,0,1,0,0,0,0,1,categorization,2,1,9,37,kitchen,living_room,distractor,29.375,24.85,40,27.1125,38,low,,,,,,,,,,,0,1,1,1,0,8,8,8,,,,,,,,,,,,,,,,,,,,,,,,,,,,,,,,,,,,,,,,,,,,,336.99932825000724,,,,,,,,,,,,,,,,,,,,,,338.22090387500066,j,1,338.77320887500537,None,,,,,,,,,,,,,,1,,,,2024-05-20_15h59.38.842,SceneCat_2023_2_key_resp,2024.1.1,None,2024-05-20 15h59.45.525800 +0200,
stimuli/img_vwrot.jpg,j,,0,1,0,0,0,0,1,categorization,2,1,10,38,kitchen,bedroom,distractor,76.9230769230769,62.0769230769231,26,69.5,329.5,high,,,,,,,,,,,0,1,1,1,0,9,9,9,,,,,,,,,,,,,,,,,,,,,,,,,,,,,,,,,,,,,,,,,,,,,338.80516033300955,,,,,,,,,,,,,,,,,,,,,,340.70299404099933,j,1,340.8895592500048,None,,,,,,,,,,,,,,1,,,,2024-05-20_15h59.38.842,SceneCat_2023_2_key_resp,2024.1.1,None,2024-05-20 15h59.45.525800 +0200,
stimuli/img_3eusg.jpg,f,,0,1,0,0,0,0,1,categorization,2,1,11,39,kitchen,kitchen,target,70.64,53.36,25,62,377,high,,,,,,,,,,,0,1,1,1,0,10,10,10,,,,,,,,,,,,,,,,,,,,,,,,,,,,,,,,,,,,,,,,,,,,,341.03752091599745,,,,,,,,,,,,,,,,,,,,,,342.2027808330022,j,0,342.6248724580073,None,,,,,,,,,,,,,,1,,,,2024-05-20_15h59.38.842,SceneCat_2023_2_key_resp,2024.1.1,None,2024-05-20 15h59.45.525800 +0200,
stimuli/img_uegbb.jpg,f,,0,1,0,0,0,0,1,categorization,2,1,12,40,kitchen,kitchen,target,78.4390243902439,61.0243902439024,41,69.7317073170732,543,high,,,,,,,,,,,0,1,1,1,0,11,11,11,,,,,,,,,,,,,,,,,,,,,,,,,,,,,,,,,,,,,,,,,,,,,342.6415441660065,,,,,,,,,,,,,,,,,,,,,,344.16981079100515,j,0,344.3855179999955,None,,,,,,,,,,,,,,1,,,,2024-05-20_15h59.38.842,SceneCat_2023_2_key_resp,2024.1.1,None,2024-05-20 15h59.45.525800 +0200,
stimuli/img_r8rvk.jpg,j,,0,1,0,0,0,0,1,categorization,2,1,13,41,kitchen,bedroom,distractor,76.5,48.9318181818182,44,62.7159090909091,242,low,,,,,,,,,,,0,1,1,1,0,12,12,12,,,,,,,,,,,,,,,,,,,,,,,,,,,,,,,,,,,,,,,,,,,,,344.5042321660003,,,,,,,,,,,,,,,,,,,,,,346.45252787500795,j,1,347.1274282910017,None,,,,,,,,,,,,,,1,,,,2024-05-20_15h59.38.842,SceneCat_2023_2_key_resp,2024.1.1,None,2024-05-20 15h59.45.525800 +0200,
stimuli/img_cjvod.jpg,f,,0,1,0,0,0,0,1,categorization,2,1,14,42,kitchen,kitchen,target,74.72,50.24,25,62.48,385,high,,,,,,,,,,,0,1,1,1,0,13,13,13,,,,,,,,,,,,,,,,,,,,,,,,,,,,,,,,,,,,,,,,,,,,,347.141101583009,,,,,,,,,,,,,,,,,,,,,,348.8927015000081,j,0,349.32785945800424,None,,,,,,,,,,,,,,1,,,,2024-05-20_15h59.38.842,SceneCat_2023_2_key_resp,2024.1.1,None,2024-05-20 15h59.45.525800 +0200,
stimuli/img_z2mg7.jpg,f,,0,1,0,0,0,0,1,categorization,2,1,15,43,kitchen,kitchen,target,16.1379310344828,8.03448275862069,29,12.0862068965517,6,low,,,,,,,,,,,0,1,1,1,0,14,14,14,,,,,,,,,,,,,,,,,,,,,,,,,,,,,,,,,,,,,,,,,,,,,349.3551489160018,,,,,,,,,,,,,,,,,,,,,,350.4028712910076,j,0,350.9040296250023,None,,,,,,,,,,,,,,1,,,,2024-05-20_15h59.38.842,SceneCat_2023_2_key_resp,2024.1.1,None,2024-05-20 15h59.45.525800 +0200,
stimuli/img_c0me7.jpg,f,,0,1,0,0,0,0,1,categorization,2,1,16,44,kitchen,kitchen,target,68.4,45.6285714285714,35,57.0142857142857,281,low,,,,,,,,,,,0,1,1,1,0,15,15,15,,,,,,,,,,,,,,,,,,,,,,,,,,,,,,,,,,,,,,,,,,,,,350.9160967080097,,,,,,,,,,,,,,,,,,,,,,352.61983016600425,j,0,352.9656660000037,None,,,,,,,,,,,,,,1,,,,2024-05-20_15h59.38.842,SceneCat_2023_2_key_resp,2024.1.1,None,2024-05-20 15h59.45.525800 +0200,
stimuli/img_s37yz.jpg,f,,0,1,0,0,0,0,1,categorization,2,1,17,45,kitchen,kitchen,target,83.52,69.88,25,76.7,680,high,,,,,,,,,,,0,1,1,1,0,16,16,16,,,,,,,,,,,,,,,,,,,,,,,,,,,,,,,,,,,,,,,,,,,,,352.9825972910039,,,,,,,,,,,,,,,,,,,,,,354.3252343750064,j,0,354.86487612500787,None,,,,,,,,,,,,,,1,,,,2024-05-20_15h59.38.842,SceneCat_2023_2_key_resp,2024.1.1,None,2024-05-20 15h59.45.525800 +0200,
stimuli/img_bdqmg.jpg,j,,0,1,0,0,0,0,1,categorization,2,1,18,46,kitchen,living_room,distractor,47.9722222222222,28.5555555555556,36,38.2638888888889,64,low,,,,,,,,,,,0,1,1,1,0,17,17,17,,,,,,,,,,,,,,,,,,,,,,,,,,,,,,,,,,,,,,,,,,,,,354.88239520799834,,,,,,,,,,,,,,,,,,,,,,356.8202034160058,j,1,357.17349808300787,None,,,,,,,,,,,,,,1,,,,2024-05-20_15h59.38.842,SceneCat_2023_2_key_resp,2024.1.1,None,2024-05-20 15h59.45.525800 +0200,
stimuli/img_ncr40.jpg,f,,0,1,0,0,0,0,1,categorization,2,1,19,47,kitchen,kitchen,target,76.92,52.68,25,64.8,437,high,,,,,,,,,,,0,1,1,1,0,18,18,18,,,,,,,,,,,,,,,,,,,,,,,,,,,,,,,,,,,,,,,,,,,,,357.20572600000014,,,,,,,,,,,,,,,,,,,,,,358.3528974159999,j,0,358.995113625002,None,,,,,,,,,,,,,,1,,,,2024-05-20_15h59.38.842,SceneCat_2023_2_key_resp,2024.1.1,None,2024-05-20 15h59.45.525800 +0200,
stimuli/img_lszzj.jpg,f,,0,1,0,0,0,0,1,categorization,2,1,20,48,kitchen,kitchen,target,68.1428571428571,50.7142857142857,21,59.4285714285714,317,low,,,,,,,,,,,0,1,1,1,0,19,19,19,,,,,,,,,,,,,,,,,,,,,,,,,,,,,,,,,,,,,,,,,,,,,359.0083340830024,,,,,,,,,,,,,,,,,,,,,,360.1354818749969,j,0,360.4854955000046,None,,,,,,,,,,,,,,1,,,,2024-05-20_15h59.38.842,SceneCat_2023_2_key_resp,2024.1.1,None,2024-05-20 15h59.45.525800 +0200,
stimuli/img_epedy.jpg,f,,0,1,0,0,0,0,1,categorization,2,1,21,49,kitchen,kitchen,target,79.4782608695652,58.9565217391304,23,69.2173913043478,530,high,,,,,,,,,,,0,1,1,1,0,20,20,20,,,,,,,,,,,,,,,,,,,,,,,,,,,,,,,,,,,,,,,,,,,,,360.50032191599894,,,,,,,,,,,,,,,,,,,,,,362.3599870830076,j,0,362.99293666600715,None,,,,,,,,,,,,,,1,,,,2024-05-20_15h59.38.842,SceneCat_2023_2_key_resp,2024.1.1,None,2024-05-20 15h59.45.525800 +0200,
stimuli/img_0mhms.jpg,f,,0,1,0,0,0,0,1,categorization,2,1,22,50,kitchen,kitchen,target,78,55.6857142857143,35,66.8428571428571,481,high,,,,,,,,,,,0,1,1,1,0,21,21,21,,,,,,,,,,,,,,,,,,,,,,,,,,,,,,,,,,,,,,,,,,,,,363.00587745799567,,,,,,,,,,,,,,,,,,,,,,364.0766007909988,j,0,364.57915820799826,None,,,,,,,,,,,,,,1,,,,2024-05-20_15h59.38.842,SceneCat_2023_2_key_resp,2024.1.1,None,2024-05-20 15h59.45.525800 +0200,
stimuli/img_t4xel.jpg,f,,0,1,0,0,0,0,1,categorization,2,1,23,51,kitchen,kitchen,target,86.875,66.5625,32,76.71875,681,high,,,,,,,,,,,0,1,1,1,0,22,22,22,,,,,,,,,,,,,,,,,,,,,,,,,,,,,,,,,,,,,,,,,,,,,364.5917598329979,,,,,,,,,,,,,,,,,,,,,,366.00871758299763,j,0,366.1974493750022,None,,,,,,,,,,,,,,1,,,,2024-05-20_15h59.38.842,SceneCat_2023_2_key_resp,2024.1.1,None,2024-05-20 15h59.45.525800 +0200,
stimuli/img_kombf.jpg,f,,0,1,0,0,0,0,1,categorization,2,1,24,52,kitchen,kitchen,target,82.9736842105263,66.8684210526316,38,74.9210526315789,657,high,,,,,,,,,,,0,1,1,1,0,23,23,23,,,,,,,,,,,,,,,,,,,,,,,,,,,,,,,,,,,,,,,,,,,,,366.34780566600966,,,,,,,,,,,,,,,,,,,,,,368.070327791007,j,0,368.7616762499965,None,,,,,,,,,,,,,,1,,,,2024-05-20_15h59.38.842,SceneCat_2023_2_key_resp,2024.1.1,None,2024-05-20 15h59.45.525800 +0200,
stimuli/img_otj9x.jpg,j,,0,1,0,0,0,0,1,categorization,2,1,25,53,kitchen,bedroom,distractor,35.3636363636364,10.6666666666667,33,23.0151515151515,33,low,,,,,,,,,,,0,1,1,1,0,24,24,24,,,,,,,,,,,,,,,,,,,,,,,,,,,,,,,,,,,,,,,,,,,,,368.772993999999,,,,,,,,,,,,,,,,,,,,,,370.4931690000085,j,1,371.0247402500099,None,,,,,,,,,,,,,,1,,,,2024-05-20_15h59.38.842,SceneCat_2023_2_key_resp,2024.1.1,None,2024-05-20 15h59.45.525800 +0200,
stimuli/img_5p2ql.jpg,j,,0,1,0,0,0,0,1,categorization,2,1,26,54,kitchen,bedroom,distractor,90.7,75.4,40,83.05,477,high,,,,,,,,,,,0,1,1,1,0,25,25,25,,,,,,,,,,,,,,,,,,,,,,,,,,,,,,,,,,,,,,,,,,,,,371.05614349999814,,,,,,,,,,,,,,,,,,,,,,372.7536976660049,j,1,373.0274087910075,None,,,,,,,,,,,,,,1,,,,2024-05-20_15h59.38.842,SceneCat_2023_2_key_resp,2024.1.1,None,2024-05-20 15h59.45.525800 +0200,
stimuli/img_isw29.jpg,f,,0,1,0,0,0,0,1,categorization,2,1,27,55,kitchen,kitchen,target,52.1785714285714,23.3928571428571,28,37.7857142857143,75,low,,,,,,,,,,,0,1,1,1,0,26,26,26,,,,,,,,,,,,,,,,,,,,,,,,,,,,,,,,,,,,,,,,,,,,,373.0889475830045,,,,,,,,,,,,,,,,,,,,,,375.0377925000066,j,0,375.56434979100595,None,,,,,,,,,,,,,,1,,,,2024-05-20_15h59.38.842,SceneCat_2023_2_key_resp,2024.1.1,None,2024-05-20 15h59.45.525800 +0200,
stimuli/img_aqu2d.jpg,f,,0,1,0,0,0,0,1,categorization,2,1,28,56,kitchen,kitchen,target,81.1470588235294,67.5588235294118,34,74.3529411764706,641,high,,,,,,,,,,,0,1,1,1,0,27,27,27,,,,,,,,,,,,,,,,,,,,,,,,,,,,,,,,,,,,,,,,,,,,,375.581779708009,,,,,,,,,,,,,,,,,,,,,,376.9197694159957,j,0,378.4447085830034,None,,,,,,,,,,,,,,1,,,,2024-05-20_15h59.38.842,SceneCat_2023_2_key_resp,2024.1.1,None,2024-05-20 15h59.45.525800 +0200,
stimuli/img_78zcn.jpg,f,,0,1,0,0,0,0,1,memory,2,1,7,35,kitchen,kitchen,target,69.4814814814815,44.2592592592593,27,56.8703703703704,278,low,old,31,,,,,,,,,0,1,1,1,,,,,0,0,0,0,,,,,,,,,,,,,,,,,,,,,,,,,,,,,,,,,,,,,,,,,378.47130062500946,,,,,,,,,,,,,,,,,,,j,381.0951515409979,None,,,,,,,,,,,,,,,,,,,1,,,,2024-05-20_15h59.38.842,SceneCat_2023_2_key_resp,2024.1.1,None,2024-05-20 15h59.45.525800 +0200,
stimuli/img_diq9d.jpg,f,,0,1,0,0,0,0,1,memory,2,1,6,34,kitchen,kitchen,target,81,65.6046511627907,43,73.3023255813954,619,high,old,32,,,,,,,,,0,1,1,1,,,,,0,1,1,1,,,,,,,,,,,,,,,,,,,,,,,,,,,,,,,,,,,,,,,,,381.106376583004,,,,,,,,,,,,,,,,,,,j,None,None,,,,,,,,,,,,,,,,,,,1,,,,2024-05-20_15h59.38.842,SceneCat_2023_2_key_resp,2024.1.1,None,2024-05-20 15h59.45.525800 +0200,
stimuli/img_ncr40.jpg,f,,0,1,0,0,0,0,1,memory,2,1,19,47,kitchen,kitchen,target,76.92,52.68,25,64.8,437,high,old,33,,,,,,,,,0,1,1,1,,,,,0,2,2,2,,,,,,,,,,,,,,,,,,,,,,,,,,,,,,,,,,,,,,,,,383.18949124999926,,,,,,,,,,,,,,,,,,,j,384.44097758299904,None,,,,,,,,,,,,,,,,,,,1,,,,2024-05-20_15h59.38.842,SceneCat_2023_2_key_resp,2024.1.1,None,2024-05-20 15h59.45.525800 +0200,
stimuli/img_uegbb.jpg,f,,0,1,0,0,0,0,1,memory,2,1,12,40,kitchen,kitchen,target,78.4390243902439,61.0243902439024,41,69.7317073170732,543,high,old,34,,,,,,,,,0,1,1,1,,,,,0,3,3,3,,,,,,,,,,,,,,,,,,,,,,,,,,,,,,,,,,,,,,,,,384.46242495800834,,,,,,,,,,,,,,,,,,,j,386.091830083009,None,,,,,,,,,,,,,,,,,,,1,,,,2024-05-20_15h59.38.842,SceneCat_2023_2_key_resp,2024.1.1,None,2024-05-20 15h59.45.525800 +0200,
stimuli/img_c0me7.jpg,f,,0,1,0,0,0,0,1,memory,2,1,16,44,kitchen,kitchen,target,68.4,45.6285714285714,35,57.0142857142857,281,low,old,35,,,,,,,,,0,1,1,1,,,,,0,4,4,4,,,,,,,,,,,,,,,,,,,,,,,,,,,,,,,,,,,,,,,,,386.1992716250097,,,,,,,,,,,,,,,,,,,j,387.9079464999959,None,,,,,,,,,,,,,,,,,,,1,,,,2024-05-20_15h59.38.842,SceneCat_2023_2_key_resp,2024.1.1,None,2024-05-20 15h59.45.525800 +0200,
stimuli/img_0mhms.jpg,f,,0,1,0,0,0,0,1,memory,2,1,22,50,kitchen,kitchen,target,78,55.6857142857143,35,66.8428571428571,481,high,old,36,,,,,,,,,0,1,1,1,,,,,0,5,5,5,,,,,,,,,,,,,,,,,,,,,,,,,,,,,,,,,,,,,,,,,387.931386915996,,,,,,,,,,,,,,,,,,,j,390.17536850000033,None,,,,,,,,,,,,,,,,,,,1,,,,2024-05-20_15h59.38.842,SceneCat_2023_2_key_resp,2024.1.1,None,2024-05-20 15h59.45.525800 +0200,
stimuli/img_vbrb7.jpg,f,,0,1,0,0,0,0,1,memory,2,1,5,33,kitchen,kitchen,target,84.7857142857143,74.1071428571429,28,79.4464285714286,713,high,old,37,,,,,,,,,0,1,1,1,,,,,0,6,6,6,,,,,,,,,,,,,,,,,,,,,,,,,,,,,,,,,,,,,,,,,390.2062329159962,,,,,,,,,,,,,,,,,,,j,391.6839632909978,None,,,,,,,,,,,,,,,,,,,1,,,,2024-05-20_15h59.38.842,SceneCat_2023_2_key_resp,2024.1.1,None,2024-05-20 15h59.45.525800 +0200,
stimuli/img_2na1o.jpg,f,,0,1,0,0,0,0,1,memory,2,1,1,29,kitchen,kitchen,target,65.3783783783784,50.3243243243243,37,57.8513513513513,295,low,old,38,,,,,,,,,0,1,1,1,,,,,0,7,7,7,,,,,,,,,,,,,,,,,,,,,,,,,,,,,,,,,,,,,,,,,391.81565062500886,,,,,,,,,,,,,,,,,,,j,393.1911852080084,None,,,,,,,,,,,,,,,,,,,1,,,,2024-05-20_15h59.38.842,SceneCat_2023_2_key_resp,2024.1.1,None,2024-05-20 15h59.45.525800 +0200,
stimuli/img_lszzj.jpg,f,,0,1,0,0,0,0,1,memory,2,1,20,48,kitchen,kitchen,target,68.1428571428571,50.7142857142857,21,59.4285714285714,317,low,old,39,,,,,,,,,0,1,1,1,,,,,0,8,8,8,,,,,,,,,,,,,,,,,,,,,,,,,,,,,,,,,,,,,,,,,393.2115139160014,,,,,,,,,,,,,,,,,,,j,394.9701906249975,None,,,,,,,,,,,,,,,,,,,1,,,,2024-05-20_15h59.38.842,SceneCat_2023_2_key_resp,2024.1.1,None,2024-05-20 15h59.45.525800 +0200,
stimuli/img_vbgti.jpg,j,,0,1,0,0,0,0,1,memory,None,None,None,None,None,kitchen,None,56.0810810810811,39.7027027027027,37,47.8918918918919,170,low,new,40,,,,,,,,,0,1,1,1,,,,,0,9,9,9,,,,,,,,,,,,,,,,,,,,,,,,,,,,,,,,,,,,,,,,,395.006439165998,,,,,,,,,,,,,,,,,,,j,396.9148731250025,None,,,,,,,,,,,,,,,,,,,1,,,,2024-05-20_15h59.38.842,SceneCat_2023_2_key_resp,2024.1.1,None,2024-05-20 15h59.45.525800 +0200,
stimuli/img_m2gan.jpg,f,,0,1,0,0,0,0,1,memory,2,1,8,36,kitchen,kitchen,target,76.2121212121212,54.2424242424242,33,65.2272727272727,446,high,old,41,,,,,,,,,0,1,1,1,,,,,0,10,10,10,,,,,,,,,,,,,,,,,,,,,,,,,,,,,,,,,,,,,,,,,396.9290838750021,,,,,,,,,,,,,,,,,,,j,399.2287741659966,None,,,,,,,,,,,,,,,,,,,1,,,,2024-05-20_15h59.38.842,SceneCat_2023_2_key_resp,2024.1.1,None,2024-05-20 15h59.45.525800 +0200,
stimuli/img_z2mg7.jpg,f,,0,1,0,0,0,0,1,memory,2,1,15,43,kitchen,kitchen,target,16.1379310344828,8.03448275862069,29,12.0862068965517,6,low,old,42,,,,,,,,,0,1,1,1,,,,,0,11,11,11,,,,,,,,,,,,,,,,,,,,,,,,,,,,,,,,,,,,,,,,,399.24433291600144,,,,,,,,,,,,,,,,,,,j,401.1915052080003,None,,,,,,,,,,,,,,,,,,,1,,,,2024-05-20_15h59.38.842,SceneCat_2023_2_key_resp,2024.1.1,None,2024-05-20 15h59.45.525800 +0200,
stimuli/img_isw29.jpg,f,,0,1,0,0,0,0,1,memory,2,1,27,55,kitchen,kitchen,target,52.1785714285714,23.3928571428571,28,37.7857142857143,75,low,old,43,,,,,,,,,0,1,1,1,,,,,0,12,12,12,,,,,,,,,,,,,,,,,,,,,,,,,,,,,,,,,,,,,,,,,401.22323908300314,,,,,,,,,,,,,,,,,,,j,402.97550429099647,None,,,,,,,,,,,,,,,,,,,1,,,,2024-05-20_15h59.38.842,SceneCat_2023_2_key_resp,2024.1.1,None,2024-05-20 15h59.45.525800 +0200,
stimuli/img_s37yz.jpg,f,,0,1,0,0,0,0,1,memory,2,1,17,45,kitchen,kitchen,target,83.52,69.88,25,76.7,680,high,old,44,,,,,,,,,0,1,1,1,,,,,0,13,13,13,,,,,,,,,,,,,,,,,,,,,,,,,,,,,,,,,,,,,,,,,402.99469829100417,,,,,,,,,,,,,,,,,,,j,404.9586704579997,None,,,,,,,,,,,,,,,,,,,1,,,,2024-05-20_15h59.38.842,SceneCat_2023_2_key_resp,2024.1.1,None,2024-05-20 15h59.45.525800 +0200,
stimuli/img_qwtnc.jpg,j,,0,1,0,0,0,0,1,memory,None,None,None,None,None,kitchen,None,61.2162162162162,32.5945945945946,37,46.9054054054054,156,low,new,45,,,,,,,,,0,1,1,1,,,,,0,14,14,14,,,,,,,,,,,,,,,,,,,,,,,,,,,,,,,,,,,,,,,,,404.97825008300424,,,,,,,,,,,,,,,,,,,j,406.2617769159988,None,,,,,,,,,,,,,,,,,,,1,,,,2024-05-20_15h59.38.842,SceneCat_2023_2_key_resp,2024.1.1,None,2024-05-20 15h59.45.525800 +0200,
stimuli/img_1m0fn.jpg,f,,0,1,0,0,0,0,1,memory,2,1,4,32,kitchen,kitchen,target,82.1333333333333,66.8333333333333,30,74.4833333333333,647,high,old,46,,,,,,,,,0,1,1,1,,,,,0,15,15,15,,,,,,,,,,,,,,,,,,,,,,,,,,,,,,,,,,,,,,,,,406.27819333299703,,,,,,,,,,,,,,,,,,,j,408.20633795800677,None,,,,,,,,,,,,,,,,,,,1,,,,2024-05-20_15h59.38.842,SceneCat_2023_2_key_resp,2024.1.1,None,2024-05-20 15h59.45.525800 +0200,
stimuli/img_epedy.jpg,f,,0,1,0,0,0,0,1,memory,2,1,21,49,kitchen,kitchen,target,79.4782608695652,58.9565217391304,23,69.2173913043478,530,high,old,47,,,,,,,,,0,1,1,1,,,,,0,16,16,16,,,,,,,,,,,,,,,,,,,,,,,,,,,,,,,,,,,,,,,,,408.2235077910009,,,,,,,,,,,,,,,,,,,j,409.2447379160003,None,,,,,,,,,,,,,,,,,,,1,,,,2024-05-20_15h59.38.842,SceneCat_2023_2_key_resp,2024.1.1,None,2024-05-20 15h59.45.525800 +0200,
stimuli/img_cjvod.jpg,f,,0,1,0,0,0,0,1,memory,2,1,14,42,kitchen,kitchen,target,74.72,50.24,25,62.48,385,high,old,48,,,,,,,,,0,1,1,1,,,,,0,17,17,17,,,,,,,,,,,,,,,,,,,,,,,,,,,,,,,,,,,,,,,,,409.6245575409994,,,,,,,,,,,,,,,,,,,j,410.889106875009,None,,,,,,,,,,,,,,,,,,,1,,,,2024-05-20_15h59.38.842,SceneCat_2023_2_key_resp,2024.1.1,None,2024-05-20 15h59.45.525800 +0200,
stimuli/img_swx2d.jpg,f,,0,1,0,0,0,0,1,memory,2,1,2,30,kitchen,kitchen,target,69.90625,33.6875,32,51.796875,208,low,old,49,,,,,,,,,0,1,1,1,,,,,0,18,18,18,,,,,,,,,,,,,,,,,,,,,,,,,,,,,,,,,,,,,,,,,410.9100552500022,,,,,,,,,,,,,,,,,,,j,412.1831459160021,None,,,,,,,,,,,,,,,,,,,1,,,,2024-05-20_15h59.38.842,SceneCat_2023_2_key_resp,2024.1.1,None,2024-05-20 15h59.45.525800 +0200,
stimuli/img_3eusg.jpg,f,,0,1,0,0,0,0,1,memory,2,1,11,39,kitchen,kitchen,target,70.64,53.36,25,62,377,high,old,50,,,,,,,,,0,1,1,1,,,,,0,19,19,19,,,,,,,,,,,,,,,,,,,,,,,,,,,,,,,,,,,,,,,,,412.1954349580046,,,,,,,,,,,,,,,,,,,j,413.67935712500184,None,,,,,,,,,,,,,,,,,,,1,,,,2024-05-20_15h59.38.842,SceneCat_2023_2_key_resp,2024.1.1,None,2024-05-20 15h59.45.525800 +0200,
stimuli/img_2rwes.jpg,j,,0,1,0,0,0,0,1,memory,None,None,None,None,None,kitchen,None,70.0476190476191,42.4285714285714,21,56.2380952380952,269,low,new,51,,,,,,,,,0,1,1,1,,,,,0,20,20,20,,,,,,,,,,,,,,,,,,,,,,,,,,,,,,,,,,,,,,,,,414.045572832998,,,,,,,,,,,,,,,,,,,j,415.1348268750007,None,,,,,,,,,,,,,,,,,,,1,,,,2024-05-20_15h59.38.842,SceneCat_2023_2_key_resp,2024.1.1,None,2024-05-20 15h59.45.525800 +0200,
stimuli/img_es115.jpg,j,,0,1,0,0,0,0,1,memory,None,None,None,None,None,kitchen,None,81.5,55.8636363636364,22,68.6818181818182,521,high,new,52,,,,,,,,,0,1,1,1,,,,,0,21,21,21,,,,,,,,,,,,,,,,,,,,,,,,,,,,,,,,,,,,,,,,,415.18190433300333,,,,,,,,,,,,,,,,,,,j,417.1494807499985,None,,,,,,,,,,,,,,,,,,,1,,,,2024-05-20_15h59.38.842,SceneCat_2023_2_key_resp,2024.1.1,None,2024-05-20 15h59.45.525800 +0200,
stimuli/img_5oubg.jpg,j,,0,1,0,0,0,0,1,memory,None,None,None,None,None,kitchen,None,48.5217391304348,30,23,39.2608695652174,80,low,new,53,,,,,,,,,0,1,1,1,,,,,0,22,22,22,,,,,,,,,,,,,,,,,,,,,,,,,,,,,,,,,,,,,,,,,417.17360237499815,,,,,,,,,,,,,,,,,,,j,419.45739345799666,None,,,,,,,,,,,,,,,,,,,1,,,,2024-05-20_15h59.38.842,SceneCat_2023_2_key_resp,2024.1.1,None,2024-05-20 15h59.45.525800 +0200,
stimuli/img_kombf.jpg,f,,0,1,0,0,0,0,1,memory,2,1,24,52,kitchen,kitchen,target,82.9736842105263,66.8684210526316,38,74.9210526315789,657,high,old,54,,,,,,,,,0,1,1,1,,,,,0,23,23,23,,,,,,,,,,,,,,,,,,,,,,,,,,,,,,,,,,,,,,,,,419.4741334999999,,,,,,,,,,,,,,,,,,,j,421.3646660410013,None,,,,,,,,,,,,,,,,,,,1,,,,2024-05-20_15h59.38.842,SceneCat_2023_2_key_resp,2024.1.1,None,2024-05-20 15h59.45.525800 +0200,
stimuli/img_t4xel.jpg,f,,0,1,0,0,0,0,1,memory,2,1,23,51,kitchen,kitchen,target,86.875,66.5625,32,76.71875,681,high,old,55,,,,,,,,,0,1,1,1,,,,,0,24,24,24,,,,,,,,,,,,,,,,,,,,,,,,,,,,,,,,,,,,,,,,,421.39049795799656,,,,,,,,,,,,,,,,,,,j,423.1876030410058,None,,,,,,,,,,,,,,,,,,,1,,,,2024-05-20_15h59.38.842,SceneCat_2023_2_key_resp,2024.1.1,None,2024-05-20 15h59.45.525800 +0200,
stimuli/img_qneik.jpg,j,,0,1,0,0,0,0,1,memory,None,None,None,None,None,kitchen,None,57.0645161290323,38.258064516129,31,47.6612903225806,165,low,new,56,,,,,,,,,0,1,1,1,,,,,0,25,25,25,,,,,,,,,,,,,,,,,,,,,,,,,,,,,,,,,,,,,,,,,423.2102954160073,,,,,,,,,,,,,,,,,,,j,424.99239875000785,None,,,,,,,,,,,,,,,,,,,1,,,,2024-05-20_15h59.38.842,SceneCat_2023_2_key_resp,2024.1.1,None,2024-05-20 15h59.45.525800 +0200,
stimuli/img_aqu2d.jpg,f,,0,1,0,0,0,0,1,memory,2,1,28,56,kitchen,kitchen,target,81.1470588235294,67.5588235294118,34,74.3529411764706,641,high,old,57,,,,,,,,,0,1,1,1,,,,,0,26,26,26,,,,,,,,,,,,,,,,,,,,,,,,,,,,,,,,,,,,,,,,,425.04863829100213,,,,,,,,,,,,,,,,,,,j,427.02821554100956,None,,,,,,,,,,,,,,,,,,,1,,,,2024-05-20_15h59.38.842,SceneCat_2023_2_key_resp,2024.1.1,None,2024-05-20 15h59.45.525800 +0200,
stimuli/img_i3eml.jpg,j,,0,1,0,0,0,0,1,memory,None,None,None,None,None,kitchen,None,81.2941176470588,57.9411764705882,34,69.6176470588235,539,high,new,58,,,,,,,,,0,1,1,1,,,,,0,27,27,27,,,,,,,,,,,,,,,,,,,,,,,,,,,,,,,,,,,,,,,,,427.05724241600547,,,,,,,,,,,,,,,,,,,j,428.52888141600124,None,,,,,,,,,,,,,,,,,,,1,,,,2024-05-20_15h59.38.842,SceneCat_2023_2_key_resp,2024.1.1,None,2024-05-20 15h59.45.525800 +0200,
,,,0,1,0,0,0,0,,,,,,,,,,,,,,,,,,,,,,,,,,0,1,1,1,,,,,,,,,,,,,,,,,,,,,,,,,,,,,,,,,,,,,,,,,,,,,,,,,,,,,,,,,,,,,,,,,,,,,,,,,,,,,,,,,,,,,,,,,1,,,,2024-05-20_15h59.38.842,SceneCat_2023_2_key_resp,2024.1.1,None,2024-05-20 15h59.45.525800 +0200,
stimuli/img_sk2ou.jpg,f,,0,0,1,0,0,0,1,categorization,3,2,1,57,living_room,living_room,target,18.3157894736842,22.2894736842105,38,20.3026315789474,20,low,,,,,,,,,,,0,2,2,2,,,,,,,,,,,,,,,,,,,,,,,,,0,0,0,0,,,,,,,,,,,,,,,,,,,,,430.49403408300714,,,,,,,,,,,,,432.8719204579975,j,0,433.56891200000246,None,,,,,,,,,,430.8715129580087,430.8715129580087,,,,,,,,,,,,1,,,,2024-05-20_15h59.38.842,SceneCat_2023_2_key_resp,2024.1.1,None,2024-05-20 15h59.45.525800 +0200,
stimuli/img_mvoj8.jpg,f,,0,0,1,0,0,0,1,categorization,3,2,2,58,living_room,living_room,target,89.8333333333333,69.9166666666667,36,79.875,272,high,,,,,,,,,,,0,2,2,2,,,,,,,,,,,,,,,,,,,,,,,,,0,1,1,1,,,,,,,,,,,,,,,,,,,,,433.58484608300205,,,,,,,,,,,,,435.34441683300247,j,0,435.5994536250073,None,,,,,,,,,,,,,,,,,,,,,,,1,,,,2024-05-20_15h59.38.842,SceneCat_2023_2_key_resp,2024.1.1,None,2024-05-20 15h59.45.525800 +0200,
stimuli/img_xy930.jpg,f,,0,0,1,0,0,0,1,categorization,3,2,3,59,living_room,living_room,target,70.9705882352941,47.0294117647059,34,59,148,high,,,,,,,,,,,0,2,2,2,,,,,,,,,,,,,,,,,,,,,,,,,0,2,2,2,,,,,,,,,,,,,,,,,,,,,435.68336416600505,,,,,,,,,,,,,437.55548933299724,j,0,437.9657742080017,None,,,,,,,,,,,,,,,,,,,,,,,1,,,,2024-05-20_15h59.38.842,SceneCat_2023_2_key_resp,2024.1.1,None,2024-05-20 15h59.45.525800 +0200,
stimuli/img_j856a.jpg,f,,0,0,1,0,0,0,1,categorization,3,2,4,60,living_room,living_room,target,37.96875,27.40625,32,32.6875,52,low,,,,,,,,,,,0,2,2,2,,,,,,,,,,,,,,,,,,,,,,,,,0,3,3,3,,,,,,,,,,,,,,,,,,,,,437.98371595800563,,,,,,,,,,,,,439.20729312500043,j,0,439.5164056250069,None,,,,,,,,,,,,,,,,,,,,,,,1,,,,2024-05-20_15h59.38.842,SceneCat_2023_2_key_resp,2024.1.1,None,2024-05-20 15h59.45.525800 +0200,
stimuli/img_v6kq9.jpg,j,,0,0,1,0,0,0,1,categorization,3,2,5,61,living_room,kitchen,distractor,71.1842105263158,49.5,38,60.3421052631579,330,low,,,,,,,,,,,0,2,2,2,,,,,,,,,,,,,,,,,,,,,,,,,0,4,4,4,,,,,,,,,,,,,,,,,,,,,439.54955179100216,,,,,,,,,,,,,440.7713775000011,j,1,440.9955956659978,None,,,,,,,,,,,,,,,,,,,,,,,1,,,,2024-05-20_15h59.38.842,SceneCat_2023_2_key_resp,2024.1.1,None,2024-05-20 15h59.45.525800 +0200,
stimuli/img_luk7x.jpg,f,,0,0,1,0,0,0,1,categorization,3,2,6,62,living_room,living_room,target,70.15625,49.09375,32,59.625,149,high,,,,,,,,,,,0,2,2,2,,,,,,,,,,,,,,,,,,,,,,,,,0,5,5,5,,,,,,,,,,,,,,,,,,,,,441.1075939160073,,,,,,,,,,,,,443.03900937500293,j,0,443.69277908300865,None,,,,,,,,,,,,,,,,,,,,,,,1,,,,2024-05-20_15h59.38.842,SceneCat_2023_2_key_resp,2024.1.1,None,2024-05-20 15h59.45.525800 +0200,
stimuli/img_95hiv.jpg,f,,0,0,1,0,0,0,1,categorization,3,2,7,63,living_room,living_room,target,84.1764705882353,65.1176470588235,34,74.6470588235294,238,high,,,,,,,,,,,0,2,2,2,,,,,,,,,,,,,,,,,,,,,,,,,0,6,6,6,,,,,,,,,,,,,,,,,,,,,443.7247626659955,,,,,,,,,,,,,445.1945026250032,j,0,445.49389120799606,None,,,,,,,,,,,,,,,,,,,,,,,1,,,,2024-05-20_15h59.38.842,SceneCat_2023_2_key_resp,2024.1.1,None,2024-05-20 15h59.45.525800 +0200,
stimuli/img_hbemf.jpg,f,,0,0,1,0,0,0,1,categorization,3,2,8,64,living_room,living_room,target,81.5526315789474,69.2894736842105,38,75.4210526315789,241,high,,,,,,,,,,,0,2,2,2,,,,,,,,,,,,,,,,,,,,,,,,,0,7,7,7,,,,,,,,,,,,,,,,,,,,,445.53361591600697,,,,,,,,,,,,,447.2443822080095,j,0,447.64385783299804,None,,,,,,,,,,,,,,,,,,,,,,,1,,,,2024-05-20_15h59.38.842,SceneCat_2023_2_key_resp,2024.1.1,None,2024-05-20 15h59.45.525800 +0200,
stimuli/img_8mkbv.jpg,j,,0,0,1,0,0,0,1,categorization,3,2,9,65,living_room,kitchen,distractor,83.85,66.325,40,75.0875,661,high,,,,,,,,,,,0,2,2,2,,,,,,,,,,,,,,,,,,,,,,,,,0,8,8,8,,,,,,,,,,,,,,,,,,,,,447.65869933299837,,,,,,,,,,,,,449.38746304099914,j,1,449.66052375000436,None,,,,,,,,,,,,,,,,,,,,,,,1,,,,2024-05-20_15h59.38.842,SceneCat_2023_2_key_resp,2024.1.1,None,2024-05-20 15h59.45.525800 +0200,
stimuli/img_ce55l.jpg,j,,0,0,1,0,0,0,1,categorization,3,2,10,66,living_room,bedroom,distractor,84.4117647058823,65.4705882352941,34,74.9411764705882,394,high,,,,,,,,,,,0,2,2,2,,,,,,,,,,,,,,,,,,,,,,,,,0,9,9,9,,,,,,,,,,,,,,,,,,,,,449.7244382080098,,,,,,,,,,,,,451.4207131660078,j,1,451.6700292080059,None,,,,,,,,,,,,,,,,,,,,,,,1,,,,2024-05-20_15h59.38.842,SceneCat_2023_2_key_resp,2024.1.1,None,2024-05-20 15h59.45.525800 +0200,
stimuli/img_9oofc.jpg,f,,0,0,1,0,0,0,1,categorization,3,2,11,67,living_room,living_room,target,83,66.1351351351351,37,74.5675675675676,236,high,,,,,,,,,,,0,2,2,2,,,,,,,,,,,,,,,,,,,,,,,,,0,10,10,10,,,,,,,,,,,,,,,,,,,,,451.75823733300786,,,,,,,,,,,,,452.82772733300226,j,0,453.53082504100166,None,,,,,,,,,,,,,,,,,,,,,,,1,,,,2024-05-20_15h59.38.842,SceneCat_2023_2_key_resp,2024.1.1,None,2024-05-20 15h59.45.525800 +0200,
stimuli/img_hmmra.jpg,f,,0,0,1,0,0,0,1,categorization,3,2,12,68,living_room,living_room,target,52.3055555555556,36.1944444444444,36,44.25,86,low,,,,,,,,,,,0,2,2,2,,,,,,,,,,,,,,,,,,,,,,,,,0,11,11,11,,,,,,,,,,,,,,,,,,,,,453.5423605410033,,,,,,,,,,,,,454.85540883299836,j,0,455.4443258329993,None,,,,,,,,,,,,,,,,,,,,,,,1,,,,2024-05-20_15h59.38.842,SceneCat_2023_2_key_resp,2024.1.1,None,2024-05-20 15h59.45.525800 +0200,
stimuli/img_yt3ea.jpg,j,,0,0,1,0,0,0,1,categorization,3,2,13,69,living_room,bedroom,distractor,13.1470588235294,10.3235294117647,34,11.7352941176471,8,low,,,,,,,,,,,0,2,2,2,,,,,,,,,,,,,,,,,,,,,,,,,0,12,12,12,,,,,,,,,,,,,,,,,,,,,455.4752367500041,,,,,,,,,,,,,456.5910437499988,j,1,457.02277620800305,None,,,,,,,,,,,,,,,,,,,,,,,1,,,,2024-05-20_15h59.38.842,SceneCat_2023_2_key_resp,2024.1.1,None,2024-05-20 15h59.45.525800 +0200,
stimuli/img_b21d7.jpg,f,,0,0,1,0,0,0,1,categorization,3,2,14,70,living_room,living_room,target,26.8055555555556,13.8611111111111,36,20.3333333333333,21,low,,,,,,,,,,,0,2,2,2,,,,,,,,,,,,,,,,,,,,,,,,,0,13,13,13,,,,,,,,,,,,,,,,,,,,,457.0356423750054,,,,,,,,,,,,,458.5451682499988,j,0,458.79329479100124,None,,,,,,,,,,,,,,,,,,,,,,,1,,,,2024-05-20_15h59.38.842,SceneCat_2023_2_key_resp,2024.1.1,None,2024-05-20 15h59.45.525800 +0200,
stimuli/img_4y7mh.jpg,f,,0,0,1,0,0,0,1,categorization,3,2,15,71,living_room,living_room,target,51.9166666666667,38.2222222222222,36,45.0694444444444,89,low,,,,,,,,,,,0,2,2,2,,,,,,,,,,,,,,,,,,,,,,,,,0,14,14,14,,,,,,,,,,,,,,,,,,,,,458.8840501250088,,,,,,,,,,,,,459.92212845799804,j,0,460.22696899999573,None,,,,,,,,,,,,,,,,,,,,,,,1,,,,2024-05-20_15h59.38.842,SceneCat_2023_2_key_resp,2024.1.1,None,2024-05-20 15h59.45.525800 +0200,
stimuli/img_abobq.jpg,f,,0,0,1,0,0,0,1,categorization,3,2,16,72,living_room,living_room,target,73.5,51.1785714285714,28,62.3392857142857,165,high,,,,,,,,,,,0,2,2,2,,,,,,,,,,,,,,,,,,,,,,,,,0,15,15,15,,,,,,,,,,,,,,,,,,,,,460.26717545800784,,,,,,,,,,,,,461.84545170800993,j,0,462.0021317500068,None,,,,,,,,,,,,,,,,,,,,,,,1,,,,2024-05-20_15h59.38.842,SceneCat_2023_2_key_resp,2024.1.1,None,2024-05-20 15h59.45.525800 +0200,
stimuli/img_o30wb.jpg,f,,0,0,1,0,0,0,1,categorization,3,2,17,73,living_room,living_room,target,81.6923076923077,66.5128205128205,39,74.1025641025641,229,high,,,,,,,,,,,0,2,2,2,,,,,,,,,,,,,,,,,,,,,,,,,0,16,16,16,,,,,,,,,,,,,,,,,,,,,462.1839845000068,,,,,,,,,,,,,463.93926791600825,j,0,464.6050068750046,None,,,,,,,,,,,,,,,,,,,,,,,1,,,,2024-05-20_15h59.38.842,SceneCat_2023_2_key_resp,2024.1.1,None,2024-05-20 15h59.45.525800 +0200,
stimuli/img_99exx.jpg,f,,0,0,1,0,0,0,1,categorization,3,2,18,74,living_room,living_room,target,69.5588235294118,53.6764705882353,34,61.6176470588235,161,high,,,,,,,,,,,0,2,2,2,,,,,,,,,,,,,,,,,,,,,,,,,0,17,17,17,,,,,,,,,,,,,,,,,,,,,464.61903729100595,,,,,,,,,,,,,466.42087033300777,j,0,466.97889037500136,None,,,,,,,,,,,,,,,,,,,,,,,1,,,,2024-05-20_15h59.38.842,SceneCat_2023_2_key_resp,2024.1.1,None,2024-05-20 15h59.45.525800 +0200,
stimuli/img_tbs4n.jpg,f,,0,0,1,0,0,0,1,categorization,3,2,19,75,living_room,living_room,target,77.4722222222222,58.1388888888889,36,67.8055555555556,192,high,,,,,,,,,,,0,2,2,2,,,,,,,,,,,,,,,,,,,,,,,,,0,18,18,18,,,,,,,,,,,,,,,,,,,,,466.9926897910045,,,,,,,,,,,,,468.29602850000083,j,0,468.8388846250018,None,,,,,,,,,,,,,,,,,,,,,,,1,,,,2024-05-20_15h59.38.842,SceneCat_2023_2_key_resp,2024.1.1,None,2024-05-20 15h59.45.525800 +0200,
stimuli/img_cic06.jpg,f,,0,0,1,0,0,0,1,categorization,3,2,20,76,living_room,living_room,target,86.0857142857143,69.5142857142857,35,77.8,260,high,,,,,,,,,,,0,2,2,2,,,,,,,,,,,,,,,,,,,,,,,,,0,19,19,19,,,,,,,,,,,,,,,,,,,,,468.8529080830049,,,,,,,,,,,,,470.2231152500026,j,0,470.6098386250087,None,,,,,,,,,,,,,,,,,,,,,,,1,,,,2024-05-20_15h59.38.842,SceneCat_2023_2_key_resp,2024.1.1,None,2024-05-20 15h59.45.525800 +0200,
stimuli/img_l42rg.jpg,f,,0,0,1,0,0,0,1,categorization,3,2,21,77,living_room,living_room,target,63.1578947368421,52.6052631578947,38,57.8815789473684,142,low,,,,,,,,,,,0,2,2,2,,,,,,,,,,,,,,,,,,,,,,,,,0,20,20,20,,,,,,,,,,,,,,,,,,,,,470.62851950000913,,,,,,,,,,,,,471.7455562910036,j,0,472.4007250410068,None,,,,,,,,,,,,,,,,,,,,,,,1,,,,2024-05-20_15h59.38.842,SceneCat_2023_2_key_resp,2024.1.1,None,2024-05-20 15h59.45.525800 +0200,
stimuli/img_vh7v8.jpg,f,,0,0,1,0,0,0,1,categorization,3,2,22,78,living_room,living_room,target,79.2894736842105,58.7894736842105,38,69.0394736842105,200,high,,,,,,,,,,,0,2,2,2,,,,,,,,,,,,,,,,,,,,,,,,,0,21,21,21,,,,,,,,,,,,,,,,,,,,,472.4176553330035,,,,,,,,,,,,,473.64015816600295,j,0,473.9434071660071,None,,,,,,,,,,,,,,,,,,,,,,,1,,,,2024-05-20_15h59.38.842,SceneCat_2023_2_key_resp,2024.1.1,None,2024-05-20 15h59.45.525800 +0200,
stimuli/img_09lgm.jpg,j,,0,0,1,0,0,0,1,categorization,3,2,23,79,living_room,kitchen,distractor,85.2258064516129,62.8387096774194,31,74.0322580645161,635,high,,,,,,,,,,,0,2,2,2,,,,,,,,,,,,,,,,,,,,,,,,,0,22,22,22,,,,,,,,,,,,,,,,,,,,,473.98411516600754,,,,,,,,,,,,,475.02886366599705,j,1,None,None,,,,,,,,,,,,,,,,,,,,,,,1,,,,2024-05-20_15h59.38.842,SceneCat_2023_2_key_resp,2024.1.1,None,2024-05-20 15h59.45.525800 +0200,
stimuli/img_66fuf.jpg,j,,0,0,1,0,0,0,1,categorization,3,2,24,80,living_room,kitchen,distractor,80.875,64,32,72.4375,604,high,,,,,,,,,,,0,2,2,2,,,,,,,,,,,,,,,,,,,,,,,,,0,23,23,23,,,,,,,,,,,,,,,,,,,,,475.5349333750055,,,,,,,,,,,,,477.2096665410063,j,1,477.727317375,None,,,,,,,,,,,,,,,,,,,,,,,1,,,,2024-05-20_15h59.38.842,SceneCat_2023_2_key_resp,2024.1.1,None,2024-05-20 15h59.45.525800 +0200,
stimuli/img_mh6x6.jpg,f,,0,0,1,0,0,0,1,categorization,3,2,25,81,living_room,living_room,target,58.8888888888889,52.8611111111111,36,55.875,135,low,,,,,,,,,,,0,2,2,2,,,,,,,,,,,,,,,,,,,,,,,,,0,24,24,24,,,,,,,,,,,,,,,,,,,,,477.75918854100746,,,,,,,,,,,,,479.51307275000727,j,0,479.81181687500793,None,,,,,,,,,,,,,,,,,,,,,,,1,,,,2024-05-20_15h59.38.842,SceneCat_2023_2_key_resp,2024.1.1,None,2024-05-20 15h59.45.525800 +0200,
stimuli/img_73pyk.jpg,f,,0,0,1,0,0,0,1,categorization,3,2,26,82,living_room,living_room,target,70.7837837837838,47.1351351351351,37,58.9594594594595,147,high,,,,,,,,,,,0,2,2,2,,,,,,,,,,,,,,,,,,,,,,,,,0,25,25,25,,,,,,,,,,,,,,,,,,,,,479.85139275000256,,,,,,,,,,,,,481.08928412500245,j,0,481.4483059159975,None,,,,,,,,,,,,,,,,,,,,,,,1,,,,2024-05-20_15h59.38.842,SceneCat_2023_2_key_resp,2024.1.1,None,2024-05-20 15h59.45.525800 +0200,
stimuli/img_gzbdr.jpg,j,,0,0,1,0,0,0,1,categorization,3,2,27,83,living_room,bedroom,distractor,30.2352941176471,18.6176470588235,34,24.4264705882353,39,low,,,,,,,,,,,0,2,2,2,,,,,,,,,,,,,,,,,,,,,,,,,0,26,26,26,,,,,,,,,,,,,,,,,,,,,481.4621081660007,,,,,,,,,,,,,482.7910204159998,j,1,483.06930133300193,None,,,,,,,,,,,,,,,,,,,,,,,1,,,,2024-05-20_15h59.38.842,SceneCat_2023_2_key_resp,2024.1.1,None,2024-05-20 15h59.45.525800 +0200,
stimuli/img_37hgm.jpg,f,,0,0,1,0,0,0,1,categorization,3,2,28,84,living_room,living_room,target,68.1212121212121,52.8181818181818,33,60.469696969697,155,high,,,,,,,,,,,0,2,2,2,,,,,,,,,,,,,,,,,,,,,,,,,0,27,27,27,,,,,,,,,,,,,,,,,,,,,483.1258448330045,,,,,,,,,,,,,484.5625298750092,j,0,484.78925529100525,None,,,,,,,,,,,,,,,,,,,,,,,1,,,,2024-05-20_15h59.38.842,SceneCat_2023_2_key_resp,2024.1.1,None,2024-05-20 15h59.45.525800 +0200,
stimuli/img_hmmra.jpg,f,,0,0,1,0,0,0,1,memory,3,2,12,68,living_room,living_room,target,52.3055555555556,36.1944444444444,36,44.25,86,low,old,59,,,,,,,,,0,2,2,2,,,,,,,,,,,,,,,,,,,,,,,,,,,,,0,0,0,0,,,,,,,,,,,,,,,,,484.9162955829961,,,,,,,,,,,,,,,,,,,j,487.58923908299766,None,,,,,,,,,,,,,,,,,,,1,,,,2024-05-20_15h59.38.842,SceneCat_2023_2_key_resp,2024.1.1,None,2024-05-20 15h59.45.525800 +0200,
stimuli/img_73pyk.jpg,f,,0,0,1,0,0,0,1,memory,3,2,26,82,living_room,living_room,target,70.7837837837838,47.1351351351351,37,58.9594594594595,147,high,old,60,,,,,,,,,0,2,2,2,,,,,,,,,,,,,,,,,,,,,,,,,,,,,0,1,1,1,,,,,,,,,,,,,,,,,487.60359666599834,,,,,,,,,,,,,,,,,,,j,489.0936909160082,None,,,,,,,,,,,,,,,,,,,1,,,,2024-05-20_15h59.38.842,SceneCat_2023_2_key_resp,2024.1.1,None,2024-05-20 15h59.45.525800 +0200,
stimuli/img_tbs4n.jpg,f,,0,0,1,0,0,0,1,memory,3,2,19,75,living_room,living_room,target,77.4722222222222,58.1388888888889,36,67.8055555555556,192,high,old,61,,,,,,,,,0,2,2,2,,,,,,,,,,,,,,,,,,,,,,,,,,,,,0,2,2,2,,,,,,,,,,,,,,,,,489.12577366600453,,,,,,,,,,,,,,,,,,,j,490.64753666600154,None,,,,,,,,,,,,,,,,,,,1,,,,2024-05-20_15h59.38.842,SceneCat_2023_2_key_resp,2024.1.1,None,2024-05-20 15h59.45.525800 +0200,
stimuli/img_vh7v8.jpg,f,,0,0,1,0,0,0,1,memory,3,2,22,78,living_room,living_room,target,79.2894736842105,58.7894736842105,38,69.0394736842105,200,high,old,62,,,,,,,,,0,2,2,2,,,,,,,,,,,,,,,,,,,,,,,,,,,,,0,3,3,3,,,,,,,,,,,,,,,,,490.6650367080001,,,,,,,,,,,,,,,,,,,j,492.6279678330029,None,,,,,,,,,,,,,,,,,,,1,,,,2024-05-20_15h59.38.842,SceneCat_2023_2_key_resp,2024.1.1,None,2024-05-20 15h59.45.525800 +0200,
stimuli/img_b21d7.jpg,f,,0,0,1,0,0,0,1,memory,3,2,14,70,living_room,living_room,target,26.8055555555556,13.8611111111111,36,20.3333333333333,21,low,old,63,,,,,,,,,0,2,2,2,,,,,,,,,,,,,,,,,,,,,,,,,,,,,0,4,4,4,,,,,,,,,,,,,,,,,492.6521966660075,,,,,,,,,,,,,,,,,,,j,494.79798779099656,None,,,,,,,,,,,,,,,,,,,1,,,,2024-05-20_15h59.38.842,SceneCat_2023_2_key_resp,2024.1.1,None,2024-05-20 15h59.45.525800 +0200,
stimuli/img_5t91y.jpg,j,,0,0,1,0,0,0,1,memory,None,None,None,None,None,living_room,None,59.3548387096774,47.5483870967742,31,53.4516129032258,122,low,new,64,,,,,,,,,0,2,2,2,,,,,,,,,,,,,,,,,,,,,,,,,,,,,0,5,5,5,,,,,,,,,,,,,,,,,494.8178017080063,,,,,,,,,,,,,,,,,,,j,496.9449851249956,None,,,,,,,,,,,,,,,,,,,1,,,,2024-05-20_15h59.38.842,SceneCat_2023_2_key_resp,2024.1.1,None,2024-05-20 15h59.45.525800 +0200,
stimuli/img_cic06.jpg,f,,0,0,1,0,0,0,1,memory,3,2,20,76,living_room,living_room,target,86.0857142857143,69.5142857142857,35,77.8,260,high,old,65,,,,,,,,,0,2,2,2,,,,,,,,,,,,,,,,,,,,,,,,,,,,,0,6,6,6,,,,,,,,,,,,,,,,,496.9761843330052,,,,,,,,,,,,,,,,,,,j,500.62130250000337,None,,,,,,,,,,,,,,,,,,,1,,,,2024-05-20_15h59.38.842,SceneCat_2023_2_key_resp,2024.1.1,None,2024-05-20 15h59.45.525800 +0200,
stimuli/img_wtz6m.jpg,j,,0,0,1,0,0,0,1,memory,None,None,None,None,None,living_room,None,53.0833333333333,36,36,44.5416666666667,87,low,new,66,,,,,,,,,0,2,2,2,,,,,,,,,,,,,,,,,,,,,,,,,,,,,0,7,7,7,,,,,,,,,,,,,,,,,500.636396041009,,,,,,,,,,,,,,,,,,,j,502.1989651250042,None,,,,,,,,,,,,,,,,,,,1,,,,2024-05-20_15h59.38.842,SceneCat_2023_2_key_resp,2024.1.1,None,2024-05-20 15h59.45.525800 +0200,
stimuli/img_l42rg.jpg,f,,0,0,1,0,0,0,1,memory,3,2,21,77,living_room,living_room,target,63.1578947368421,52.6052631578947,38,57.8815789473684,142,low,old,67,,,,,,,,,0,2,2,2,,,,,,,,,,,,,,,,,,,,,,,,,,,,,0,8,8,8,,,,,,,,,,,,,,,,,502.22631666599773,,,,,,,,,,,,,,,,,,,j,504.2018438750092,None,,,,,,,,,,,,,,,,,,,1,,,,2024-05-20_15h59.38.842,SceneCat_2023_2_key_resp,2024.1.1,None,2024-05-20 15h59.45.525800 +0200,
stimuli/img_9oofc.jpg,f,,0,0,1,0,0,0,1,memory,3,2,11,67,living_room,living_room,target,83,66.1351351351351,37,74.5675675675676,236,high,old,68,,,,,,,,,0,2,2,2,,,,,,,,,,,,,,,,,,,,,,,,,,,,,0,9,9,9,,,,,,,,,,,,,,,,,504.2429968750075,,,,,,,,,,,,,,,,,,,j,506.02880000000005,None,,,,,,,,,,,,,,,,,,,1,,,,2024-05-20_15h59.38.842,SceneCat_2023_2_key_resp,2024.1.1,None,2024-05-20 15h59.45.525800 +0200,
stimuli/img_gfmug.jpg,j,,0,0,1,0,0,0,1,memory,None,None,None,None,None,living_room,None,55.2727272727273,26.3333333333333,33,40.8030303030303,71,low,new,69,,,,,,,,,0,2,2,2,,,,,,,,,,,,,,,,,,,,,,,,,,,,,0,10,10,10,,,,,,,,,,,,,,,,,506.04975854100485,,,,,,,,,,,,,,,,,,,j,507.47799512500933,None,,,,,,,,,,,,,,,,,,,1,,,,2024-05-20_15h59.38.842,SceneCat_2023_2_key_resp,2024.1.1,None,2024-05-20 15h59.45.525800 +0200,
stimuli/img_mh6x6.jpg,f,,0,0,1,0,0,0,1,memory,3,2,25,81,living_room,living_room,target,58.8888888888889,52.8611111111111,36,55.875,135,low,old,70,,,,,,,,,0,2,2,2,,,,,,,,,,,,,,,,,,,,,,,,,,,,,0,11,11,11,,,,,,,,,,,,,,,,,507.5097294580046,,,,,,,,,,,,,,,,,,,j,509.5111490410054,None,,,,,,,,,,,,,,,,,,,1,,,,2024-05-20_15h59.38.842,SceneCat_2023_2_key_resp,2024.1.1,None,2024-05-20 15h59.45.525800 +0200,
stimuli/img_mvoj8.jpg,f,,0,0,1,0,0,0,1,memory,3,2,2,58,living_room,living_room,target,89.8333333333333,69.9166666666667,36,79.875,272,high,old,71,,,,,,,,,0,2,2,2,,,,,,,,,,,,,,,,,,,,,,,,,,,,,0,12,12,12,,,,,,,,,,,,,,,,,509.5307953330048,,,,,,,,,,,,,,,,,,,j,511.51766395800223,None,,,,,,,,,,,,,,,,,,,1,,,,2024-05-20_15h59.38.842,SceneCat_2023_2_key_resp,2024.1.1,None,2024-05-20 15h59.45.525800 +0200,
stimuli/img_dh5no.jpg,j,,0,0,1,0,0,0,1,memory,None,None,None,None,None,living_room,None,83.9285714285714,58.5357142857143,28,71.2321428571429,210,high,new,72,,,,,,,,,0,2,2,2,,,,,,,,,,,,,,,,,,,,,,,,,,,,,0,13,13,13,,,,,,,,,,,,,,,,,511.53683408300276,,,,,,,,,,,,,,,,,,,j,None,None,,,,,,,,,,,,,,,,,,,1,,,,2024-05-20_15h59.38.842,SceneCat_2023_2_key_resp,2024.1.1,None,2024-05-20 15h59.45.525800 +0200,
stimuli/img_qywyi.jpg,j,,0,0,1,0,0,0,1,memory,None,None,None,None,None,living_room,None,43.5757575757576,36.6666666666667,33,40.1212121212121,68,low,new,73,,,,,,,,,0,2,2,2,,,,,,,,,,,,,,,,,,,,,,,,,,,,,0,14,14,14,,,,,,,,,,,,,,,,,513.7813825409976,,,,,,,,,,,,,,,,,,,j,515.5968863750022,None,,,,,,,,,,,,,,,,,,,1,,,,2024-05-20_15h59.38.842,SceneCat_2023_2_key_resp,2024.1.1,None,2024-05-20 15h59.45.525800 +0200,
stimuli/img_37hgm.jpg,f,,0,0,1,0,0,0,1,memory,3,2,28,84,living_room,living_room,target,68.1212121212121,52.8181818181818,33,60.469696969697,155,high,old,74,,,,,,,,,0,2,2,2,,,,,,,,,,,,,,,,,,,,,,,,,,,,,0,15,15,15,,,,,,,,,,,,,,,,,515.615864833002,,,,,,,,,,,,,,,,,,,j,517.1069772080082,None,,,,,,,,,,,,,,,,,,,1,,,,2024-05-20_15h59.38.842,SceneCat_2023_2_key_resp,2024.1.1,None,2024-05-20 15h59.45.525800 +0200,
stimuli/img_o30wb.jpg,f,,0,0,1,0,0,0,1,memory,3,2,17,73,living_room,living_room,target,81.6923076923077,66.5128205128205,39,74.1025641025641,229,high,old,75,,,,,,,,,0,2,2,2,,,,,,,,,,,,,,,,,,,,,,,,,,,,,0,16,16,16,,,,,,,,,,,,,,,,,517.1210383330035,,,,,,,,,,,,,,,,,,,j,519.2333930000023,None,,,,,,,,,,,,,,,,,,,1,,,,2024-05-20_15h59.38.842,SceneCat_2023_2_key_resp,2024.1.1,None,2024-05-20 15h59.45.525800 +0200,
stimuli/img_hbemf.jpg,f,,0,0,1,0,0,0,1,memory,3,2,8,64,living_room,living_room,target,81.5526315789474,69.2894736842105,38,75.4210526315789,241,high,old,76,,,,,,,,,0,2,2,2,,,,,,,,,,,,,,,,,,,,,,,,,,,,,0,17,17,17,,,,,,,,,,,,,,,,,519.2601471250091,,,,,,,,,,,,,,,,,,,j,521.1503813750023,None,,,,,,,,,,,,,,,,,,,1,,,,2024-05-20_15h59.38.842,SceneCat_2023_2_key_resp,2024.1.1,None,2024-05-20 15h59.45.525800 +0200,
stimuli/img_qdi9n.jpg,j,,0,0,1,0,0,0,1,memory,None,None,None,None,None,living_room,None,43.7105263157895,39.3421052631579,38,41.5263157894737,73,low,new,77,,,,,,,,,0,2,2,2,,,,,,,,,,,,,,,,,,,,,,,,,,,,,0,18,18,18,,,,,,,,,,,,,,,,,521.1767899580009,,,,,,,,,,,,,,,,,,,j,522.9039145830029,None,,,,,,,,,,,,,,,,,,,1,,,,2024-05-20_15h59.38.842,SceneCat_2023_2_key_resp,2024.1.1,None,2024-05-20 15h59.45.525800 +0200,
stimuli/img_99exx.jpg,f,,0,0,1,0,0,0,1,memory,3,2,18,74,living_room,living_room,target,69.5588235294118,53.6764705882353,34,61.6176470588235,161,high,old,78,,,,,,,,,0,2,2,2,,,,,,,,,,,,,,,,,,,,,,,,,,,,,0,19,19,19,,,,,,,,,,,,,,,,,522.9205047910073,,,,,,,,,,,,,,,,,,,j,524.7178166660015,None,,,,,,,,,,,,,,,,,,,1,,,,2024-05-20_15h59.38.842,SceneCat_2023_2_key_resp,2024.1.1,None,2024-05-20 15h59.45.525800 +0200,
stimuli/img_j856a.jpg,f,,0,0,1,0,0,0,1,memory,3,2,4,60,living_room,living_room,target,37.96875,27.40625,32,32.6875,52,low,old,79,,,,,,,,,0,2,2,2,,,,,,,,,,,,,,,,,,,,,,,,,,,,,0,20,20,20,,,,,,,,,,,,,,,,,524.7696302499971,,,,,,,,,,,,,,,,,,,j,526.1152441660088,None,,,,,,,,,,,,,,,,,,,1,,,,2024-05-20_15h59.38.842,SceneCat_2023_2_key_resp,2024.1.1,None,2024-05-20 15h59.45.525800 +0200,
stimuli/img_sk2ou.jpg,f,,0,0,1,0,0,0,1,memory,3,2,1,57,living_room,living_room,target,18.3157894736842,22.2894736842105,38,20.3026315789474,20,low,old,80,,,,,,,,,0,2,2,2,,,,,,,,,,,,,,,,,,,,,,,,,,,,,0,21,21,21,,,,,,,,,,,,,,,,,526.1327722080023,,,,,,,,,,,,,,,,,,,j,529.6345285410061,None,,,,,,,,,,,,,,,,,,,1,,,,2024-05-20_15h59.38.842,SceneCat_2023_2_key_resp,2024.1.1,None,2024-05-20 15h59.45.525800 +0200,
stimuli/img_luk7x.jpg,f,,0,0,1,0,0,0,1,memory,3,2,6,62,living_room,living_room,target,70.15625,49.09375,32,59.625,149,high,old,81,,,,,,,,,0,2,2,2,,,,,,,,,,,,,,,,,,,,,,,,,,,,,0,22,22,22,,,,,,,,,,,,,,,,,529.6492496249994,,,,,,,,,,,,,,,,,,,j,532.5791919580079,None,,,,,,,,,,,,,,,,,,,1,,,,2024-05-20_15h59.38.842,SceneCat_2023_2_key_resp,2024.1.1,None,2024-05-20 15h59.45.525800 +0200,
stimuli/img_abobq.jpg,f,,0,0,1,0,0,0,1,memory,3,2,16,72,living_room,living_room,target,73.5,51.1785714285714,28,62.3392857142857,165,high,old,82,,,,,,,,,0,2,2,2,,,,,,,,,,,,,,,,,,,,,,,,,,,,,0,23,23,23,,,,,,,,,,,,,,,,,532.5984581660014,,,,,,,,,,,,,,,,,,,j,538.1400369159965,None,,,,,,,,,,,,,,,,,,,1,,,,2024-05-20_15h59.38.842,SceneCat_2023_2_key_resp,2024.1.1,None,2024-05-20 15h59.45.525800 +0200,
stimuli/img_4y7mh.jpg,f,,0,0,1,0,0,0,1,memory,3,2,15,71,living_room,living_room,target,51.9166666666667,38.2222222222222,36,45.0694444444444,89,low,old,83,,,,,,,,,0,2,2,2,,,,,,,,,,,,,,,,,,,,,,,,,,,,,0,24,24,24,,,,,,,,,,,,,,,,,538.1605851659988,,,,,,,,,,,,,,,,,,,j,540.1800050410093,None,,,,,,,,,,,,,,,,,,,1,,,,2024-05-20_15h59.38.842,SceneCat_2023_2_key_resp,2024.1.1,None,2024-05-20 15h59.45.525800 +0200,
stimuli/img_95hiv.jpg,f,,0,0,1,0,0,0,1,memory,3,2,7,63,living_room,living_room,target,84.1764705882353,65.1176470588235,34,74.6470588235294,238,high,old,84,,,,,,,,,0,2,2,2,,,,,,,,,,,,,,,,,,,,,,,,,,,,,0,25,25,25,,,,,,,,,,,,,,,,,540.1998090410052,,,,,,,,,,,,,,,,,,,j,542.7133110830036,None,,,,,,,,,,,,,,,,,,,1,,,,2024-05-20_15h59.38.842,SceneCat_2023_2_key_resp,2024.1.1,None,2024-05-20 15h59.45.525800 +0200,
stimuli/img_yhiqc.jpg,j,,0,0,1,0,0,0,1,memory,None,None,None,None,None,living_room,None,61.3888888888889,42.4722222222222,36,51.9305555555556,117,low,new,85,,,,,,,,,0,2,2,2,,,,,,,,,,,,,,,,,,,,,,,,,,,,,0,26,26,26,,,,,,,,,,,,,,,,,542.7273583330098,,,,,,,,,,,,,,,,,,,j,545.3918308749999,None,,,,,,,,,,,,,,,,,,,1,,,,2024-05-20_15h59.38.842,SceneCat_2023_2_key_resp,2024.1.1,None,2024-05-20 15h59.45.525800 +0200,
stimuli/img_xy930.jpg,f,,0,0,1,0,0,0,1,memory,3,2,3,59,living_room,living_room,target,70.9705882352941,47.0294117647059,34,59,148,high,old,86,,,,,,,,,0,2,2,2,,,,,,,,,,,,,,,,,,,,,,,,,,,,,0,27,27,27,,,,,,,,,,,,,,,,,545.4046833750035,,,,,,,,,,,,,,,,,,,j,547.1964839580032,None,,,,,,,,,,,,,,,,,,,1,,,,2024-05-20_15h59.38.842,SceneCat_2023_2_key_resp,2024.1.1,None,2024-05-20 15h59.45.525800 +0200,
,,,0,0,1,0,0,0,,,,,,,,,,,,,,,,,,,,,,,,,,0,2,2,2,,,,,,,,,,,,,,,,,,,,,,,,,,,,,,,,,,,,,,,,,,,,,,,,,,,,,,,,,,,,,,,,,,,,,,,,,,,,,,,,,,,,,,,,,1,,,,2024-05-20_15h59.38.842,SceneCat_2023_2_key_resp,2024.1.1,None,2024-05-20 15h59.45.525800 +0200,
stimuli/img_cvyc3.jpg,f,,0,0,0,1,0,0,1,categorization,4,1,1,85,bedroom,bedroom,target,85.8928571428571,75.1785714285714,28,80.5357142857143,451,high,,,,,,,,,,,0,3,3,3,,,,,,,,,,,,,,,,,,,,,,,,,,,,,,,,,0,0,0,0,,,,,,,,,,,,,548.8444572500011,,,,,,,,,,,,,,,,,,,,,,,,,,,,,549.2081295410026,549.2081295410026,551.0516267080093,551.7942411249969,j,0,551.8423048330005,None,,,,1,,,,2024-05-20_15h59.38.842,SceneCat_2023_2_key_resp,2024.1.1,None,2024-05-20 15h59.45.525800 +0200,
stimuli/img_v0i83.jpg,f,,0,0,0,1,0,0,1,categorization,4,1,2,86,bedroom,bedroom,target,83.3333333333333,57.6296296296296,27,70.4814814814815,340,high,,,,,,,,,,,0,3,3,3,,,,,,,,,,,,,,,,,,,,,,,,,,,,,,,,,0,1,1,1,,,,,,,,,,,,,551.8562283329957,,,,,,,,,,,,,,,,,,,,,,,,,,,,,,,553.8077820409962,,j,0,554.2259614159993,None,,,,1,,,,2024-05-20_15h59.38.842,SceneCat_2023_2_key_resp,2024.1.1,None,2024-05-20 15h59.45.525800 +0200,
stimuli/img_4yy1j.jpg,f,,0,0,0,1,0,0,1,categorization,4,1,3,87,bedroom,bedroom,target,75.9393939393939,53.6060606060606,33,64.7727272727273,264,high,,,,,,,,,,,0,3,3,3,,,,,,,,,,,,,,,,,,,,,,,,,,,,,,,,,0,2,2,2,,,,,,,,,,,,,554.2386146250064,,,,,,,,,,,,,,,,,,,,,,,,,,,,,,,555.8585350829962,,j,0,556.0534747909987,None,,,,1,,,,2024-05-20_15h59.38.842,SceneCat_2023_2_key_resp,2024.1.1,None,2024-05-20 15h59.45.525800 +0200,
stimuli/img_yteqw.jpg,f,,0,0,0,1,0,0,1,categorization,4,1,4,88,bedroom,bedroom,target,68.1212121212121,44.3030303030303,33,56.2121212121212,180,low,,,,,,,,,,,0,3,3,3,,,,,,,,,,,,,,,,,,,,,,,,,,,,,,,,,0,3,3,3,,,,,,,,,,,,,556.1946705410082,,,,,,,,,,,,,,,,,,,,,,,,,,,,,,,557.7084186660068,,j,0,557.9255420830013,None,,,,1,,,,2024-05-20_15h59.38.842,SceneCat_2023_2_key_resp,2024.1.1,None,2024-05-20 15h59.45.525800 +0200,
stimuli/img_i0its.jpg,f,,0,0,0,1,0,0,1,categorization,4,1,5,89,bedroom,bedroom,target,89.2,75.1666666666667,30,82.1833333333333,469,high,,,,,,,,,,,0,3,3,3,,,,,,,,,,,,,,,,,,,,,,,,,,,,,,,,,0,4,4,4,,,,,,,,,,,,,558.0444408330077,,,,,,,,,,,,,,,,,,,,,,,,,,,,,,,559.5740127080062,,j,0,559.9499763750064,None,,,,1,,,,2024-05-20_15h59.38.842,SceneCat_2023_2_key_resp,2024.1.1,None,2024-05-20 15h59.45.525800 +0200,
stimuli/img_ur4j0.jpg,f,,0,0,0,1,0,0,1,categorization,4,1,6,90,bedroom,bedroom,target,37.9583333333333,18.7916666666667,24,28.375,48,low,,,,,,,,,,,0,3,3,3,,,,,,,,,,,,,,,,,,,,,,,,,,,,,,,,,0,5,5,5,,,,,,,,,,,,,559.9620128749957,,,,,,,,,,,,,,,,,,,,,,,,,,,,,,,561.6252608750074,,j,0,562.014541291006,None,,,,1,,,,2024-05-20_15h59.38.842,SceneCat_2023_2_key_resp,2024.1.1,None,2024-05-20 15h59.45.525800 +0200,
stimuli/img_13ozs.jpg,f,,0,0,0,1,0,0,1,categorization,4,1,7,91,bedroom,bedroom,target,36.5588235294118,21.5,34,29.0294117647059,51,low,,,,,,,,,,,0,3,3,3,,,,,,,,,,,,,,,,,,,,,,,,,,,,,,,,,0,6,6,6,,,,,,,,,,,,,562.0450419160043,,,,,,,,,,,,,,,,,,,,,,,,,,,,,,,563.6756555000029,,j,0,563.9290940409992,None,,,,1,,,,2024-05-20_15h59.38.842,SceneCat_2023_2_key_resp,2024.1.1,None,2024-05-20 15h59.45.525800 +0200,
stimuli/img_d9ogj.jpg,f,,0,0,0,1,0,0,1,categorization,4,1,8,92,bedroom,bedroom,target,77.3214285714286,50.2857142857143,28,63.8035714285714,250,high,,,,,,,,,,,0,3,3,3,,,,,,,,,,,,,,,,,,,,,,,,,,,,,,,,,0,7,7,7,,,,,,,,,,,,,564.020081833005,,,,,,,,,,,,,,,,,,,,,,,,,,,,,,,565.5656812500092,,j,0,565.7546435830009,None,,,,1,,,,2024-05-20_15h59.38.842,SceneCat_2023_2_key_resp,2024.1.1,None,2024-05-20 15h59.45.525800 +0200,
stimuli/img_uttnz.jpg,f,,0,0,0,1,0,0,1,categorization,4,1,9,93,bedroom,bedroom,target,72.741935483871,51.8387096774194,31,62.2903225806452,237,low,,,,,,,,,,,0,3,3,3,,,,,,,,,,,,,,,,,,,,,,,,,,,,,,,,,0,8,8,8,,,,,,,,,,,,,565.9108570829994,,,,,,,,,,,,,,,,,,,,,,,,,,,,,,,567.6653368330008,,j,0,567.829522458007,None,,,,1,,,,2024-05-20_15h59.38.842,SceneCat_2023_2_key_resp,2024.1.1,None,2024-05-20 15h59.45.525800 +0200,
stimuli/img_x8jid.jpg,f,,0,0,0,1,0,0,1,categorization,4,1,10,94,bedroom,bedroom,target,89.3214285714286,66.4642857142857,28,77.8928571428571,425,high,,,,,,,,,,,0,3,3,3,,,,,,,,,,,,,,,,,,,,,,,,,,,,,,,,,0,9,9,9,,,,,,,,,,,,,568.0052217909979,,,,,,,,,,,,,,,,,,,,,,,,,,,,,,,569.3582918750035,,j,0,569.6332883750001,None,,,,1,,,,2024-05-20_15h59.38.842,SceneCat_2023_2_key_resp,2024.1.1,None,2024-05-20 15h59.45.525800 +0200,
stimuli/img_di9lr.jpg,j,,0,0,0,1,0,0,1,categorization,4,1,11,95,bedroom,kitchen,distractor,65.258064516129,40.5161290322581,31,52.8870967741936,217,low,,,,,,,,,,,0,3,3,3,,,,,,,,,,,,,,,,,,,,,,,,,,,,,,,,,0,10,10,10,,,,,,,,,,,,,569.6945527909993,,,,,,,,,,,,,,,,,,,,,,,,,,,,,,,571.2584216660034,572.0013118750066,j,1,572.7864414579963,None,,,,1,,,,2024-05-20_15h59.38.842,SceneCat_2023_2_key_resp,2024.1.1,None,2024-05-20 15h59.45.525800 +0200,
stimuli/img_np28f.jpg,j,,0,0,0,1,0,0,1,categorization,4,1,12,96,bedroom,kitchen,distractor,78.2352941176471,44.6764705882353,34,61.4558823529412,355,low,,,,,,,,,,,0,3,3,3,,,,,,,,,,,,,,,,,,,,,,,,,,,,,,,,,0,11,11,11,,,,,,,,,,,,,572.804346416,,,,,,,,,,,,,,,,,,,,,,,,,,,,,,,574.7594344160025,,j,1,575.3133761659992,None,,,,1,,,,2024-05-20_15h59.38.842,SceneCat_2023_2_key_resp,2024.1.1,None,2024-05-20 15h59.45.525800 +0200,
stimuli/img_i64cx.jpg,j,,0,0,0,1,0,0,1,categorization,4,1,13,97,bedroom,living_room,distractor,79.5128205128205,60.7179487179487,39,70.1153846153846,205,high,,,,,,,,,,,0,3,3,3,,,,,,,,,,,,,,,,,,,,,,,,,,,,,,,,,0,12,12,12,,,,,,,,,,,,,575.331568249996,,,,,,,,,,,,,,,,,,,,,,,,,,,,,,,577.2481826660078,577.9948470410018,j,1,578.8304924999975,None,,,,1,,,,2024-05-20_15h59.38.842,SceneCat_2023_2_key_resp,2024.1.1,None,2024-05-20 15h59.45.525800 +0200,
stimuli/img_91ht8.jpg,f,,0,0,0,1,0,0,1,categorization,4,1,14,98,bedroom,bedroom,target,90.4333333333333,74.0666666666667,30,82.25,470,high,,,,,,,,,,,0,3,3,3,,,,,,,,,,,,,,,,,,,,,,,,,,,,,,,,,0,13,13,13,,,,,,,,,,,,,578.8619803750044,,,,,,,,,,,,,,,,,,,,,,,,,,,,,,,580.8249404160015,581.5686660829961,j,0,581.7965997499996,None,,,,1,,,,2024-05-20_15h59.38.842,SceneCat_2023_2_key_resp,2024.1.1,None,2024-05-20 15h59.45.525800 +0200,
stimuli/img_xz4gr.jpg,f,,0,0,0,1,0,0,1,categorization,4,1,15,99,bedroom,bedroom,target,83.125,58.84375,32,70.984375,347,high,,,,,,,,,,,0,3,3,3,,,,,,,,,,,,,,,,,,,,,,,,,,,,,,,,,0,14,14,14,,,,,,,,,,,,,581.8125392079965,,,,,,,,,,,,,,,,,,,,,,,,,,,,,,,582.9156415000034,583.6619252910023,j,0,587.5515788330085,None,,,,1,,,,2024-05-20_15h59.38.842,SceneCat_2023_2_key_resp,2024.1.1,None,2024-05-20 15h59.45.525800 +0200,
stimuli/img_ys3qz.jpg,f,,0,0,0,1,0,0,1,categorization,4,1,16,100,bedroom,bedroom,target,46.2972972972973,29.7837837837838,37,38.0405405405405,77,low,,,,,,,,,,,0,3,3,3,,,,,,,,,,,,,,,,,,,,,,,,,,,,,,,,,0,15,15,15,,,,,,,,,,,,,587.5794209160085,,,,,,,,,,,,,,,,,,,,,,,,,,,,,,,589.2319870000065,,j,0,589.9255481250002,None,,,,1,,,,2024-05-20_15h59.38.842,SceneCat_2023_2_key_resp,2024.1.1,None,2024-05-20 15h59.45.525800 +0200,
stimuli/img_x1lo7.jpg,j,,0,0,0,1,0,0,1,categorization,4,1,17,101,bedroom,kitchen,distractor,79.4814814814815,62.2592592592593,27,70.8703703703704,570,high,,,,,,,,,,,0,3,3,3,,,,,,,,,,,,,,,,,,,,,,,,,,,,,,,,,0,16,16,16,,,,,,,,,,,,,589.9392275830032,,,,,,,,,,,,,,,,,,,,,,,,,,,,,,,591.5588479160069,592.3019836660096,j,1,593.1048286250007,None,,,,1,,,,2024-05-20_15h59.38.842,SceneCat_2023_2_key_resp,2024.1.1,None,2024-05-20 15h59.45.525800 +0200,
stimuli/img_i84x0.jpg,f,,0,0,0,1,0,0,1,categorization,4,1,18,102,bedroom,bedroom,target,82.1290322580645,69.9354838709677,31,76.0322580645161,406,high,,,,,,,,,,,0,3,3,3,,,,,,,,,,,,,,,,,,,,,,,,,,,,,,,,,0,17,17,17,,,,,,,,,,,,,593.1229516660096,,,,,,,,,,,,,,,,,,,,,,,,,,,,,,,595.0092758329993,,j,0,595.5111218750098,None,,,,1,,,,2024-05-20_15h59.38.842,SceneCat_2023_2_key_resp,2024.1.1,None,2024-05-20 15h59.45.525800 +0200,
stimuli/img_opxap.jpg,f,,0,0,0,1,0,0,1,categorization,4,1,19,103,bedroom,bedroom,target,79.8823529411765,55.6764705882353,34,67.7794117647059,309,high,,,,,,,,,,,0,3,3,3,,,,,,,,,,,,,,,,,,,,,,,,,,,,,,,,,0,18,18,18,,,,,,,,,,,,,595.5232369160076,,,,,,,,,,,,,,,,,,,,,,,,,,,,,,,596.9997092080011,,j,0,597.3337035410077,None,,,,1,,,,2024-05-20_15h59.38.842,SceneCat_2023_2_key_resp,2024.1.1,None,2024-05-20 15h59.45.525800 +0200,
stimuli/img_07c1w.jpg,f,,0,0,0,1,0,0,1,categorization,4,1,20,104,bedroom,bedroom,target,78.7567567567568,63.2162162162162,37,70.9864864864865,348,high,,,,,,,,,,,0,3,3,3,,,,,,,,,,,,,,,,,,,,,,,,,,,,,,,,,0,19,19,19,,,,,,,,,,,,,597.3489577080036,,,,,,,,,,,,,,,,,,,,,,,,,,,,,,,598.8665680830018,,j,0,599.1363392909989,None,,,,1,,,,2024-05-20_15h59.38.842,SceneCat_2023_2_key_resp,2024.1.1,None,2024-05-20 15h59.45.525800 +0200,
stimuli/img_xtizs.jpg,j,,0,0,0,1,0,0,1,categorization,4,1,21,105,bedroom,kitchen,distractor,47.8387096774194,27.8064516129032,31,37.8225806451613,76,low,,,,,,,,,,,0,3,3,3,,,,,,,,,,,,,,,,,,,,,,,,,,,,,,,,,0,20,20,20,,,,,,,,,,,,,599.2046524580073,,,,,,,,,,,,,,,,,,,,,,,,,,,,,,,600.6268908750062,,j,1,600.9238256249955,None,,,,1,,,,2024-05-20_15h59.38.842,SceneCat_2023_2_key_resp,2024.1.1,None,2024-05-20 15h59.45.525800 +0200,
stimuli/img_b2jli.jpg,f,,0,0,0,1,0,0,1,categorization,4,1,22,106,bedroom,bedroom,target,80.5909090909091,64.0909090909091,22,72.3409090909091,367,high,,,,,,,,,,,0,3,3,3,,,,,,,,,,,,,,,,,,,,,,,,,,,,,,,,,0,21,21,21,,,,,,,,,,,,,600.9726697910082,,,,,,,,,,,,,,,,,,,,,,,,,,,,,,,602.4163009159965,,j,0,603.131217208007,None,,,,1,,,,2024-05-20_15h59.38.842,SceneCat_2023_2_key_resp,2024.1.1,None,2024-05-20 15h59.45.525800 +0200,
stimuli/img_m7i17.jpg,f,,0,0,0,1,0,0,1,categorization,4,1,23,107,bedroom,bedroom,target,44.8965517241379,29.2413793103448,29,37.0689655172414,74,low,,,,,,,,,,,0,3,3,3,,,,,,,,,,,,,,,,,,,,,,,,,,,,,,,,,0,22,22,22,,,,,,,,,,,,,603.149543624997,,,,,,,,,,,,,,,,,,,,,,,,,,,,,,,604.4835319999984,605.2291982909956,j,0,605.2385368329997,None,,,,1,,,,2024-05-20_15h59.38.842,SceneCat_2023_2_key_resp,2024.1.1,None,2024-05-20 15h59.45.525800 +0200,
stimuli/img_sgt5b.jpg,f,,0,0,0,1,0,0,1,categorization,4,1,24,108,bedroom,bedroom,target,90.0434782608696,80.4347826086957,23,85.2391304347826,497,high,,,,,,,,,,,0,3,3,3,,,,,,,,,,,,,,,,,,,,,,,,,,,,,,,,,0,23,23,23,,,,,,,,,,,,,605.2568052080023,,,,,,,,,,,,,,,,,,,,,,,,,,,,,,,607.0599345000082,,j,0,607.2600090409978,None,,,,1,,,,2024-05-20_15h59.38.842,SceneCat_2023_2_key_resp,2024.1.1,None,2024-05-20 15h59.45.525800 +0200,
stimuli/img_kwbzo.jpg,j,,0,0,0,1,0,0,1,categorization,4,1,25,109,bedroom,kitchen,distractor,91.1071428571429,67.3928571428571,28,79.25,708,high,,,,,,,,,,,0,3,3,3,,,,,,,,,,,,,,,,,,,,,,,,,,,,,,,,,0,24,24,24,,,,,,,,,,,,,607.404826375001,,,,,,,,,,,,,,,,,,,,,,,,,,,,,,,609.2280672080087,609.9690365410061,j,1,612.3316540000087,None,,,,1,,,,2024-05-20_15h59.38.842,SceneCat_2023_2_key_resp,2024.1.1,None,2024-05-20 15h59.45.525800 +0200,
stimuli/img_d3t0o.jpg,f,,0,0,0,1,0,0,1,categorization,4,1,26,110,bedroom,bedroom,target,68.5555555555556,43.1666666666667,36,55.8611111111111,178,low,,,,,,,,,,,0,3,3,3,,,,,,,,,,,,,,,,,,,,,,,,,,,,,,,,,0,25,25,25,,,,,,,,,,,,,612.363584250008,,,,,,,,,,,,,,,,,,,,,,,,,,,,,,,613.8442497500073,,j,0,614.1851400410087,None,,,,1,,,,2024-05-20_15h59.38.842,SceneCat_2023_2_key_resp,2024.1.1,None,2024-05-20 15h59.45.525800 +0200,
stimuli/img_88mrj.jpg,f,,0,0,0,1,0,0,1,categorization,4,1,27,111,bedroom,bedroom,target,85.7777777777778,60.3703703703704,27,73.0740740740741,376,high,,,,,,,,,,,0,3,3,3,,,,,,,,,,,,,,,,,,,,,,,,,,,,,,,,,0,26,26,26,,,,,,,,,,,,,614.1985263749957,,,,,,,,,,,,,,,,,,,,,,,,,,,,,,,615.3662628750026,616.1128572080052,j,0,616.5601011660037,None,,,,1,,,,2024-05-20_15h59.38.842,SceneCat_2023_2_key_resp,2024.1.1,None,2024-05-20 15h59.45.525800 +0200,
stimuli/img_5949k.jpg,j,,0,0,0,1,0,0,1,categorization,4,1,28,112,bedroom,kitchen,distractor,60.304347826087,39.4347826086956,23,49.8695652173913,192,low,,,,,,,,,,,0,3,3,3,,,,,,,,,,,,,,,,,,,,,,,,,,,,,,,,,0,27,27,27,,,,,,,,,,,,,616.5735760000098,,,,,,,,,,,,,,,,,,,,,,,,,,,,,,,618.410177541009,,j,1,618.771675750002,None,,,,1,,,,2024-05-20_15h59.38.842,SceneCat_2023_2_key_resp,2024.1.1,None,2024-05-20 15h59.45.525800 +0200,
stimuli/img_cvyc3.jpg,f,,0,0,0,1,0,0,1,memory,4,1,1,85,bedroom,bedroom,target,85.8928571428571,75.1785714285714,28,80.5357142857143,451,high,old,90,,,,,,,,,0,3,3,3,,,,,,,,,,,,,,,,,,,,,,,,,,,,,,,,,,,,,0,0,0,3,,,,,,,,,618.8031319580041,,,,,,,,,,,,,,,,,,,j,621.7717008330073,None,,,,,,,,,,,,,,,,,,,1,,,,2024-05-20_15h59.38.842,SceneCat_2023_2_key_resp,2024.1.1,None,2024-05-20 15h59.45.525800 +0200,
stimuli/wdvhujn.jpg,j,,0,0,0,1,0,0,1,memory,None,None,None,None,None,None,None,None,None,None,None,None,None,catch,109,,,,,,,,,0,3,3,3,,,,,,,,,,,,,,,,,,,,,,,,,,,,,,,,,,,,,0,1,1,22,,,,,,,,,621.788319750005,,,,,,,,,,,,,,,,,,,j,625.0145313749963,None,,,,,,,,,,,,,,,,,,,1,,,,2024-05-20_15h59.38.842,SceneCat_2023_2_key_resp,2024.1.1,None,2024-05-20 15h59.45.525800 +0200,
stimuli/img_91ht8.jpg,f,,0,0,0,1,0,0,1,memory,4,1,14,98,bedroom,bedroom,target,90.4333333333333,74.0666666666667,30,82.25,470,high,old,111,,,,,,,,,0,3,3,3,,,,,,,,,,,,,,,,,,,,,,,,,,,,,,,,,,,,,0,2,2,24,,,,,,,,,625.0394679580058,,,,,,,,,,,,,,,,,,,j,626.5092800410057,None,,,,,,,,,,,,,,,,,,,1,,,,2024-05-20_15h59.38.842,SceneCat_2023_2_key_resp,2024.1.1,None,2024-05-20 15h59.45.525800 +0200,
stimuli/img_88mrj.jpg,f,,0,0,0,1,0,0,1,memory,4,1,27,111,bedroom,bedroom,target,85.7777777777778,60.3703703703704,27,73.0740740740741,376,high,old,106,,,,,,,,,0,3,3,3,,,,,,,,,,,,,,,,,,,,,,,,,,,,,,,,,,,,,0,3,3,19,,,,,,,,,626.5305716250004,,,,,,,,,,,,,,,,,,,j,628.1755062080047,None,,,,,,,,,,,,,,,,,,,1,,,,2024-05-20_15h59.38.842,SceneCat_2023_2_key_resp,2024.1.1,None,2024-05-20 15h59.45.525800 +0200,
stimuli/img_d9ogj.jpg,f,,0,0,0,1,0,0,1,memory,4,1,8,92,bedroom,bedroom,target,77.3214285714286,50.2857142857143,28,63.8035714285714,250,high,old,112,,,,,,,,,0,3,3,3,,,,,,,,,,,,,,,,,,,,,,,,,,,,,,,,,,,,,0,4,4,25,,,,,,,,,628.1970352909993,,,,,,,,,,,,,,,,,,,j,630.3490088749968,None,,,,,,,,,,,,,,,,,,,1,,,,2024-05-20_15h59.38.842,SceneCat_2023_2_key_resp,2024.1.1,None,2024-05-20 15h59.45.525800 +0200,
stimuli/img_ys3qz.jpg,f,,0,0,0,1,0,0,1,memory,4,1,16,100,bedroom,bedroom,target,46.2972972972973,29.7837837837838,37,38.0405405405405,77,low,old,87,,,,,,,,,0,3,3,3,,,,,,,,,,,,,,,,,,,,,,,,,,,,,,,,,,,,,0,5,5,0,,,,,,,,,630.3692664580012,,,,,,,,,,,,,,,,,,,j,632.46532045801,None,,,,,,,,,,,,,,,,,,,1,,,,2024-05-20_15h59.38.842,SceneCat_2023_2_key_resp,2024.1.1,None,2024-05-20 15h59.45.525800 +0200,
stimuli/img_b2jli.jpg,f,,0,0,0,1,0,0,1,memory,4,1,22,106,bedroom,bedroom,target,80.5909090909091,64.0909090909091,22,72.3409090909091,367,high,old,105,,,,,,,,,0,3,3,3,,,,,,,,,,,,,,,,,,,,,,,,,,,,,,,,,,,,,0,6,6,18,,,,,,,,,632.496762499999,,,,,,,,,,,,,,,,,,,j,634.9657123750076,None,,,,,,,,,,,,,,,,,,,1,,,,2024-05-20_15h59.38.842,SceneCat_2023_2_key_resp,2024.1.1,None,2024-05-20 15h59.45.525800 +0200,
