stimulus,correct_answer,cat_training_trials.thisRepN,cat_training_trials.thisTrialN,cat_training_trials.thisN,cat_training_trials.thisIndex,memo_training_trials.thisRepN,memo_training_trials.thisTrialN,memo_training_trials.thisN,memo_training_trials.thisIndex,correct_1,thisRow.t,notes,instructions_cat_2.started,instructions_cat_2.stopped,cat_training_key.keys,cat_training_key.corr,cat_training_key.rt,cat_training_key.duration,participant,Alter,Geschlecht,Haendigkeit,date,expName,psychopyVersion,frameRate,expStart,
,,,,,,,,,,,,,,,,,,,1,,,,2024-06-22_15h18.00.106,SceneCat_2023_2_key_resp,2024.1.1,None,2024-06-22 15h18.08.082413 +0200,
,,,,,,,,,,,,,,,,,,,1,,,,2024-06-22_15h18.00.106,SceneCat_2023_2_key_resp,2024.1.1,None,2024-06-22 15h18.08.082413 +0200,
,,,,,,,,,,,,,,,,,,,1,,,,2024-06-22_15h18.00.106,SceneCat_2023_2_key_resp,2024.1.1,None,2024-06-22 15h18.08.082413 +0200,
,,,,,,,,,,,,,,,,,,,1,,,,2024-06-22_15h18.00.106,SceneCat_2023_2_key_resp,2024.1.1,None,2024-06-22 15h18.08.082413 +0200,
,,,,,,,,,,,,,,,,,,,1,,,,2024-06-22_15h18.00.106,SceneCat_2023_2_key_resp,2024.1.1,None,2024-06-22 15h18.08.082413 +0200,
,,,,,,,,,,,,,4.972073417040519,5.556839833036065,,,,,1,,,,2024-06-22_15h18.00.106,SceneCat_2023_2_key_resp,2024.1.1,None,2024-06-22 15h18.08.082413 +0200,
,,,,,,,,,,,,,,,,,,,1,,,,2024-06-22_15h18.00.106,SceneCat_2023_2_key_resp,2024.1.1,None,2024-06-22 15h18.08.082413 +0200,
stimuli/train_x9.jpg,f,0,0,0,24,,,,,,8.051848708011676,,,,j,0,8.440912500023842,None,1,,,,2024-06-22_15h18.00.106,SceneCat_2023_2_key_resp,2024.1.1,None,2024-06-22 15h18.08.082413 +0200,
stimuli/train_x6.jpg,f,0,1,1,21,,,,,,9.461755333002657,,,,j,0,10.457757583004422,None,1,,,,2024-06-22_15h18.00.106,SceneCat_2023_2_key_resp,2024.1.1,None,2024-06-22 15h18.08.082413 +0200,
stimuli/train_4.jpg,j,0,2,2,3,,,,,,11.471207208000124,,,,j,1,11.873106583021581,None,1,,,,2024-06-22_15h18.00.106,SceneCat_2023_2_key_resp,2024.1.1,None,2024-06-22 15h18.08.082413 +0200,
stimuli/train_10.jpg,j,0,3,3,9,,,,,,12.928149042010773,,,,j,1,13.54580491699744,None,1,,,,2024-06-22_15h18.00.106,SceneCat_2023_2_key_resp,2024.1.1,None,2024-06-22 15h18.08.082413 +0200,
stimuli/train_1.jpg,j,0,4,4,0,,,,,,14.595747083018068,,,,j,1,15.352005167049356,None,1,,,,2024-06-22_15h18.00.106,SceneCat_2023_2_key_resp,2024.1.1,None,2024-06-22 15h18.08.082413 +0200,
stimuli/train_8.jpg,j,0,5,5,7,,,,,,16.428963292040862,,,,j,1,16.86821250000503,None,1,,,,2024-06-22_15h18.00.106,SceneCat_2023_2_key_resp,2024.1.1,None,2024-06-22 15h18.08.082413 +0200,
stimuli/train_x5.jpg,f,0,6,6,20,,,,,,17.878574833041057,,,,j,0,18.465477833000477,None,1,,,,2024-06-22_15h18.00.106,SceneCat_2023_2_key_resp,2024.1.1,None,2024-06-22 15h18.08.082413 +0200,
stimuli/train_15.jpg,f,0,7,7,14,,,,,,19.4793990420294,,,,j,0,20.122951208031736,None,1,,,,2024-06-22_15h18.00.106,SceneCat_2023_2_key_resp,2024.1.1,None,2024-06-22 15h18.08.082413 +0200,
stimuli/train_x8.jpg,f,0,8,8,23,,,,,,21.204591250047088,,,,j,0,22.090311750012916,None,1,,,,2024-06-22_15h18.00.106,SceneCat_2023_2_key_resp,2024.1.1,None,2024-06-22 15h18.08.082413 +0200,
stimuli/train_x7.jpg,f,0,9,9,22,,,,,,23.179133083031047,,,,j,0,23.836130375042558,None,1,,,,2024-06-22_15h18.00.106,SceneCat_2023_2_key_resp,2024.1.1,None,2024-06-22 15h18.08.082413 +0200,
stimuli/train_x3.jpg,f,0,10,10,18,,,,,,24.838620833004825,,,,j,0,25.60728083300637,None,1,,,,2024-06-22_15h18.00.106,SceneCat_2023_2_key_resp,2024.1.1,None,2024-06-22 15h18.08.082413 +0200,
stimuli/train_x1.jpg,f,0,11,11,16,,,,,,26.612734500027727,,,,j,0,27.432101875019725,None,1,,,,2024-06-22_15h18.00.106,SceneCat_2023_2_key_resp,2024.1.1,None,2024-06-22 15h18.08.082413 +0200,
stimuli/train_x4.jpg,f,0,12,12,19,,,,,,28.454789042007178,,,,j,0,28.88964087504428,None,1,,,,2024-06-22_15h18.00.106,SceneCat_2023_2_key_resp,2024.1.1,None,2024-06-22 15h18.08.082413 +0200,
stimuli/train_3.jpg,j,0,13,13,2,,,,,,29.896001125045586,,,,j,1,30.79894383304054,None,1,,,,2024-06-22_15h18.00.106,SceneCat_2023_2_key_resp,2024.1.1,None,2024-06-22 15h18.08.082413 +0200,
stimuli/train_6.jpg,j,0,14,14,5,,,,,,31.813108917034697,,,,j,1,32.301865333050955,None,1,,,,2024-06-22_15h18.00.106,SceneCat_2023_2_key_resp,2024.1.1,None,2024-06-22 15h18.08.082413 +0200,
stimuli/train_9.jpg,j,0,15,15,8,,,,,,33.3138092920417,,,,j,1,34.20240529201692,None,1,,,,2024-06-22_15h18.00.106,SceneCat_2023_2_key_resp,2024.1.1,None,2024-06-22 15h18.08.082413 +0200,
stimuli/train_5.jpg,j,0,16,16,4,,,,,,35.21271254203748,,,,j,1,36.34487233299296,None,1,,,,2024-06-22_15h18.00.106,SceneCat_2023_2_key_resp,2024.1.1,None,2024-06-22 15h18.08.082413 +0200,
stimuli/train_14.jpg,f,0,17,17,13,,,,,,37.34657158300979,,,,j,0,38.182777625042945,None,1,,,,2024-06-22_15h18.00.106,SceneCat_2023_2_key_resp,2024.1.1,None,2024-06-22 15h18.08.082413 +0200,
stimuli/train_16.jpg,f,0,18,18,15,,,,,,39.24643279204611,,,,j,0,39.60065883304924,None,1,,,,2024-06-22_15h18.00.106,SceneCat_2023_2_key_resp,2024.1.1,None,2024-06-22 15h18.08.082413 +0200,
stimuli/train_13.jpg,f,0,19,19,12,,,,,,40.61375066702021,,,,j,0,41.56516975001432,None,1,,,,2024-06-22_15h18.00.106,SceneCat_2023_2_key_resp,2024.1.1,None,2024-06-22 15h18.08.082413 +0200,
stimuli/train_12.jpg,j,0,20,20,11,,,,,,42.57964679202996,,,,j,1,43.25295316701522,None,1,,,,2024-06-22_15h18.00.106,SceneCat_2023_2_key_resp,2024.1.1,None,2024-06-22 15h18.08.082413 +0200,
stimuli/train_x2.jpg,f,0,21,21,17,,,,,,44.26357933302643,,,,j,0,44.56668166699819,None,1,,,,2024-06-22_15h18.00.106,SceneCat_2023_2_key_resp,2024.1.1,None,2024-06-22 15h18.08.082413 +0200,
stimuli/train_11.jpg,j,0,22,22,10,,,,,,45.580202292010654,,,,j,1,46.33475870802067,None,1,,,,2024-06-22_15h18.00.106,SceneCat_2023_2_key_resp,2024.1.1,None,2024-06-22 15h18.08.082413 +0200,
stimuli/train_2.jpg,j,0,23,23,1,,,,,,47.363777000049595,,,,j,1,47.931120458000805,None,1,,,,2024-06-22_15h18.00.106,SceneCat_2023_2_key_resp,2024.1.1,None,2024-06-22 15h18.08.082413 +0200,
stimuli/train_7.jpg,j,0,24,24,6,,,,,,49.029991333023645,,,,j,1,49.458833208016586,None,1,,,,2024-06-22_15h18.00.106,SceneCat_2023_2_key_resp,2024.1.1,None,2024-06-22 15h18.08.082413 +0200,
,,,,,,,,,,,,,,,,,,,1,,,,2024-06-22_15h18.00.106,SceneCat_2023_2_key_resp,2024.1.1,None,2024-06-22 15h18.08.082413 +0200,
,,,,,,,,,,,52.91274666704703,,,,,,,,,,,,,,,,,
