stimulus,correct_answer,correct_1,cat_training_trials.thisRepN,cat_training_trials.thisTrialN,cat_training_trials.thisN,cat_training_trials.thisIndex,memo_training_trials.thisRepN,memo_training_trials.thisTrialN,memo_training_trials.thisN,memo_training_trials.thisIndex,categorization_trials.thisRepN,categorization_trials.thisTrialN,categorization_trials.thisN,categorization_trials.thisIndex,kitchens_1,living_rooms_1,bedrooms_1,living_rooms_2,bedrooms_2,kitchens_2,thisRow.t,notes,instructions_cat_2.started,instructions_cat_2.stopped,cat_training_key.keys,cat_training_key.corr,cat_training_key.rt,cat_training_key.duration,memo_training_slider_key_resp.keys,memo_training_slider_key_resp.rt,memo_training_slider_key_resp.duration,participant,Alter,Geschlecht,Haendigkeit,date,expName,psychopyVersion,frameRate,expStart,
,,,,,,,,,,,,,,,,,,,,,,,,,,,,,,,,2,,,,2024-06-01_17h34.10.364,SceneCat_2023_2_key_resp,2024.1.1,None,2024-06-01 17h34.25.541564 +0200,
,,,,,,,,,,,,,,,,,,,,,,,,,,,,,,,,2,,,,2024-06-01_17h34.10.364,SceneCat_2023_2_key_resp,2024.1.1,None,2024-06-01 17h34.25.541564 +0200,
,,,,,,,,,,,,,,,,,,,,,,,,,,,,,,,,2,,,,2024-06-01_17h34.10.364,SceneCat_2023_2_key_resp,2024.1.1,None,2024-06-01 17h34.25.541564 +0200,
,,,,,,,,,,,,,,,,,,,,,,,,,,,,,,,,2,,,,2024-06-01_17h34.10.364,SceneCat_2023_2_key_resp,2024.1.1,None,2024-06-01 17h34.25.541564 +0200,
,,,,,,,,,,,,,,,,,,,,,,,,,,,,,,,,2,,,,2024-06-01_17h34.10.364,SceneCat_2023_2_key_resp,2024.1.1,None,2024-06-01 17h34.25.541564 +0200,
,,,,,,,,,,,,,,,,,,,,,,,84.29252945799817,85.61939216600149,,,,,,,,2,,,,2024-06-01_17h34.10.364,SceneCat_2023_2_key_resp,2024.1.1,None,2024-06-01 17h34.25.541564 +0200,
,,,,,,,,,,,,,,,,,,,,,,,,,,,,,,,,2,,,,2024-06-01_17h34.10.364,SceneCat_2023_2_key_resp,2024.1.1,None,2024-06-01 17h34.25.541564 +0200,
stimuli/train_6.jpg,j,,0,0,0,5,,,,,,,,,,,,,,,88.12361745799717,,,,j,1,90.88775366600021,None,,,,2,,,,2024-06-01_17h34.10.364,SceneCat_2023_2_key_resp,2024.1.1,None,2024-06-01 17h34.25.541564 +0200,
stimuli/train_8.jpg,j,,0,1,1,7,,,,,,,,,,,,,,,91.90081570800248,,,,j,1,97.19055133299844,None,,,,2,,,,2024-06-01_17h34.10.364,SceneCat_2023_2_key_resp,2024.1.1,None,2024-06-01 17h34.25.541564 +0200,
stimuli/train_16.jpg,f,,0,2,2,15,,,,,,,,,,,,,,,98.1912820409998,,,,j,0,100.539311540997,None,,,,2,,,,2024-06-01_17h34.10.364,SceneCat_2023_2_key_resp,2024.1.1,None,2024-06-01 17h34.25.541564 +0200,
stimuli/train_4.jpg,j,,0,3,3,3,,,,,,,,,,,,,,,101.55114033300197,,,,j,1,103.94305066599918,None,,,,2,,,,2024-06-01_17h34.10.364,SceneCat_2023_2_key_resp,2024.1.1,None,2024-06-01 17h34.25.541564 +0200,
stimuli/train_10.jpg,j,,0,4,4,9,,,,,,,,,,,,,,,104.95797383299941,,,,j,1,106.87306695800362,None,,,,2,,,,2024-06-01_17h34.10.364,SceneCat_2023_2_key_resp,2024.1.1,None,2024-06-01 17h34.25.541564 +0200,
stimuli/train_3.jpg,j,,0,5,5,2,,,,,,,,,,,,,,,107.8746624580017,,,,j,1,109.84367712499807,None,,,,2,,,,2024-06-01_17h34.10.364,SceneCat_2023_2_key_resp,2024.1.1,None,2024-06-01 17h34.25.541564 +0200,
stimuli/train_1.jpg,j,,0,6,6,0,,,,,,,,,,,,,,,110.85811329100397,,,,j,1,113.16509779100306,None,,,,2,,,,2024-06-01_17h34.10.364,SceneCat_2023_2_key_resp,2024.1.1,None,2024-06-01 17h34.25.541564 +0200,
stimuli/train_15.jpg,f,,0,7,7,14,,,,,,,,,,,,,,,114.17500620800274,,,,j,0,116.01078316599887,None,,,,2,,,,2024-06-01_17h34.10.364,SceneCat_2023_2_key_resp,2024.1.1,None,2024-06-01 17h34.25.541564 +0200,
stimuli/train_14.jpg,f,,0,8,8,13,,,,,,,,,,,,,,,117.02498112500325,,,,f,1,118.94446495800366,None,,,,2,,,,2024-06-01_17h34.10.364,SceneCat_2023_2_key_resp,2024.1.1,None,2024-06-01 17h34.25.541564 +0200,
stimuli/train_9.jpg,j,,0,9,9,8,,,,,,,,,,,,,,,119.95854295800382,,,,j,1,122.07908329099882,None,,,,2,,,,2024-06-01_17h34.10.364,SceneCat_2023_2_key_resp,2024.1.1,None,2024-06-01 17h34.25.541564 +0200,
stimuli/train_2.jpg,j,,0,10,10,1,,,,,,,,,,,,,,,123.09211966599833,,,,j,1,125.63869454099768,None,,,,2,,,,2024-06-01_17h34.10.364,SceneCat_2023_2_key_resp,2024.1.1,None,2024-06-01 17h34.25.541564 +0200,
stimuli/train_11.jpg,j,,0,11,11,10,,,,,,,,,,,,,,,126.64296329100034,,,,j,1,129.4068907500041,None,,,,2,,,,2024-06-01_17h34.10.364,SceneCat_2023_2_key_resp,2024.1.1,None,2024-06-01 17h34.25.541564 +0200,
stimuli/train_7.jpg,j,,0,12,12,6,,,,,,,,,,,,,,,130.40894787500292,,,,j,1,131.84500204100186,None,,,,2,,,,2024-06-01_17h34.10.364,SceneCat_2023_2_key_resp,2024.1.1,None,2024-06-01 17h34.25.541564 +0200,
stimuli/train_5.jpg,j,,0,13,13,4,,,,,,,,,,,,,,,132.89289183299843,,,,j,1,135.4461299579998,None,,,,2,,,,2024-06-01_17h34.10.364,SceneCat_2023_2_key_resp,2024.1.1,None,2024-06-01 17h34.25.541564 +0200,
stimuli/train_13.jpg,f,,0,14,14,12,,,,,,,,,,,,,,,136.459033500003,,,,j,0,138.5776780410015,None,,,,2,,,,2024-06-01_17h34.10.364,SceneCat_2023_2_key_resp,2024.1.1,None,2024-06-01 17h34.25.541564 +0200,
stimuli/train_12.jpg,j,,0,15,15,11,,,,,,,,,,,,,,,139.59287149999727,,,,j,1,141.77636258299754,None,,,,2,,,,2024-06-01_17h34.10.364,SceneCat_2023_2_key_resp,2024.1.1,None,2024-06-01 17h34.25.541564 +0200,
,,,,,,,,,,,,,,,,,,,,,,,,,,,,,,,,2,,,,2024-06-01_17h34.10.364,SceneCat_2023_2_key_resp,2024.1.1,None,2024-06-01 17h34.25.541564 +0200,
stimuli/train_9.jpg,,1,,,,,0,0,0,8,,,,,,,,,,,145.0647901659977,,,,,,,,j,148.1635828330036,None,2,,,,2024-06-01_17h34.10.364,SceneCat_2023_2_key_resp,2024.1.1,None,2024-06-01 17h34.25.541564 +0200,
stimuli/train_6.jpg,,1,,,,,0,1,1,5,,,,,,,,,,,149.6586343750023,,,,,,,,j,152.1131375410041,None,2,,,,2024-06-01_17h34.10.364,SceneCat_2023_2_key_resp,2024.1.1,None,2024-06-01 17h34.25.541564 +0200,
stimuli/train_18.jpg,,3,,,,,0,2,2,13,,,,,,,,,,,153.62020883300283,,,,,,,,j,156.18930112499947,None,2,,,,2024-06-01_17h34.10.364,SceneCat_2023_2_key_resp,2024.1.1,None,2024-06-01 17h34.25.541564 +0200,
stimuli/train_3.jpg,,1,,,,,0,3,3,2,,,,,,,,,,,157.68700608299696,,,,,,,,j,160.6669265829987,None,2,,,,2024-06-01_17h34.10.364,SceneCat_2023_2_key_resp,2024.1.1,None,2024-06-01 17h34.25.541564 +0200,
stimuli/train_8.jpg,,1,,,,,0,4,4,7,,,,,,,,,,,162.1593856660038,,,,,,,,j,164.59880741599773,None,2,,,,2024-06-01_17h34.10.364,SceneCat_2023_2_key_resp,2024.1.1,None,2024-06-01 17h34.25.541564 +0200,
stimuli/train_19.jpg,,3,,,,,0,5,5,14,,,,,,,,,,,166.10938733300281,,,,,,,,j,168.00083320800331,None,2,,,,2024-06-01_17h34.10.364,SceneCat_2023_2_key_resp,2024.1.1,None,2024-06-01 17h34.25.541564 +0200,
stimuli/train_4.jpg,,1,,,,,0,6,6,3,,,,,,,,,,,169.50414358299895,,,,,,,,j,None,None,2,,,,2024-06-01_17h34.10.364,SceneCat_2023_2_key_resp,2024.1.1,None,2024-06-01 17h34.25.541564 +0200,
stimuli/train_20.jpg,,3,,,,,0,7,7,15,,,,,,,,,,,172.97100895800395,,,,,,,,j,175.03502762500284,None,2,,,,2024-06-01_17h34.10.364,SceneCat_2023_2_key_resp,2024.1.1,None,2024-06-01 17h34.25.541564 +0200,
stimuli/train_12.jpg,,1,,,,,0,8,8,11,,,,,,,,,,,176.5265057910001,,,,,,,,k,178.92632466599753,None,2,,,,2024-06-01_17h34.10.364,SceneCat_2023_2_key_resp,2024.1.1,None,2024-06-01 17h34.25.541564 +0200,
stimuli/train_11.jpg,,1,,,,,0,9,9,10,,,,,,,,,,,180.42117512500408,,,,,,,,k,182.55692545800412,None,2,,,,2024-06-01_17h34.10.364,SceneCat_2023_2_key_resp,2024.1.1,None,2024-06-01 17h34.25.541564 +0200,
stimuli/train_7.jpg,,1,,,,,0,10,10,6,,,,,,,,,,,184.05458533300407,,,,,,,,k,186.47816237500228,None,2,,,,2024-06-01_17h34.10.364,SceneCat_2023_2_key_resp,2024.1.1,None,2024-06-01 17h34.25.541564 +0200,
stimuli/train_17.jpg,,3,,,,,0,11,11,12,,,,,,,,,,,187.97149587499734,,,,,,,,k,191.19020762499713,None,2,,,,2024-06-01_17h34.10.364,SceneCat_2023_2_key_resp,2024.1.1,None,2024-06-01 17h34.25.541564 +0200,
stimuli/train_1.jpg,,1,,,,,0,12,12,0,,,,,,,,,,,192.68835695800226,,,,,,,,k,197.09785495800315,None,2,,,,2024-06-01_17h34.10.364,SceneCat_2023_2_key_resp,2024.1.1,None,2024-06-01 17h34.25.541564 +0200,
stimuli/train_2.jpg,,1,,,,,0,13,13,1,,,,,,,,,,,198.6049865410023,,,,,,,,k,200.46191299999919,None,2,,,,2024-06-01_17h34.10.364,SceneCat_2023_2_key_resp,2024.1.1,None,2024-06-01 17h34.25.541564 +0200,
stimuli/train_10.jpg,,1,,,,,0,14,14,9,,,,,,,,,,,201.96065100000123,,,,,,,,k,203.88462091600377,None,2,,,,2024-06-01_17h34.10.364,SceneCat_2023_2_key_resp,2024.1.1,None,2024-06-01 17h34.25.541564 +0200,
stimuli/train_5.jpg,,1,,,,,0,15,15,4,,,,,,,,,,,205.37717562499893,,,,,,,,j,208.25379220800096,None,2,,,,2024-06-01_17h34.10.364,SceneCat_2023_2_key_resp,2024.1.1,None,2024-06-01 17h34.25.541564 +0200,
,,,,,,,,,,,,,,,,,,,,,,,,,,,,,,,,2,,,,2024-06-01_17h34.10.364,SceneCat_2023_2_key_resp,2024.1.1,None,2024-06-01 17h34.25.541564 +0200,
