stimulus,correct_answer,living_room_1,kitchen_1,living_room_2,bedroom_1,kitchen_2,bedroom_2,subject_id,task,block_total_cat,block_scene_cat,trial_block_cat,trial_total_cat,target_cat,category,cond_cat,conceptual,perceptual,n,typicality,ranked,typi_bin,correct_1,correct_2,cond_mem,trial_total_mem,cat_training_trials.thisRepN,cat_training_trials.thisTrialN,cat_training_trials.thisN,cat_training_trials.thisIndex,categorization_trials.thisRepN,categorization_trials.thisTrialN,categorization_trials.thisN,categorization_trials.thisIndex,kitchen_a_categorization_trials.thisRepN,kitchen_a_categorization_trials.thisTrialN,kitchen_a_categorization_trials.thisN,kitchen_a_categorization_trials.thisIndex,kitchen_b_categorization_trials.thisRepN,kitchen_b_categorization_trials.thisTrialN,kitchen_b_categorization_trials.thisN,kitchen_b_categorization_trials.thisIndex,living_a_categorization_trials.thisRepN,living_a_categorization_trials.thisTrialN,living_a_categorization_trials.thisN,living_a_categorization_trials.thisIndex,living_b_categorization_trials.thisRepN,living_b_categorization_trials.thisTrialN,living_b_categorization_trials.thisN,living_b_categorization_trials.thisIndex,bed_a_categorization_trials.thisRepN,bed_a_categorization_trials.thisTrialN,bed_a_categorization_trials.thisN,bed_a_categorization_trials.thisIndex,bed_b_categorization_trials.thisRepN,bed_b_categorization_trials.thisTrialN,bed_b_categorization_trials.thisN,bed_b_categorization_trials.thisIndex,memo_training_trials.thisRepN,memo_training_trials.thisTrialN,memo_training_trials.thisN,memo_training_trials.thisIndex,memotest_trials.thisRepN,memotest_trials.thisTrialN,memotest_trials.thisN,memotest_trials.thisIndex,thisRow.t,notes,consent_text.started,consent_text.stopped,cat_training_key.keys,cat_training_key.corr,cat_training_key.rt,cat_training_key.duration,living_a_text_2.started,living_a_block_no.started,living_picture_image.started,living_picture_resp.keys,living_picture_resp.corr,living_picture_resp.rt,living_picture_resp.duration,living_picture_image.stopped,kitchen_fix.started,kitchen_picture_resp.keys,kitchen_picture_resp.corr,kitchen_picture_resp.rt,kitchen_picture_resp.duration,living_b_text_2.started,living_b_block_no.started,bed_a_text_2.started,bed_a_block_no.started,bed_picture_image.started,bed_picture_resp.keys,bed_picture_resp.corr,bed_picture_resp.rt,bed_picture_resp.duration,bed_b_text_2.started,bed_b_block_no.started,memo_training_slider.response,memo_training_slider.rt,memotest_task_slider.response,memotest_task_slider.rt,vpcode,participant,Alter,Geschlecht,Haendigkeit,date,expName,psychopyVersion,frameRate,expStart,
stimuli/uhnnfhj.jpg,j,,,,,,,,,,,,,,,,,,,,,,,,,,0,0,0,12,,,,,,,,,,,,,,,,,,,,,,,,,,,,,,,,,,,,,83.777840363,,1.3225239569983387,25.82071017400085,j,1,0.3606441609990725,None,,,,,,,,,,,,,,,,,,,,,,,,,,,,,,1,,,,2024-04-05_16h41.55.092,V_1_memo_end,2023.2.3,119.48621167876702,2024-04-05 16h42.07.553099 +0200,
stimuli/uzgfvbnh.jpg,j,,,,,,,,,,,,,,,,,,,,,,,,,,0,1,1,14,,,,,,,,,,,,,,,,,,,,,,,,,,,,,,,,,,,,,86.93792620900058,,,,j,1,0.25007984100011527,None,,,,,,,,,,,,,,,,,,,,,,,,,,,,,,1,,,,2024-04-05_16h41.55.092,V_1_memo_end,2023.2.3,119.48621167876702,2024-04-05 16h42.07.553099 +0200,
stimuli/khfp.jpg,f,,,,,,,,,,,,,,,,,,,,,,,,,,0,2,2,8,,,,,,,,,,,,,,,,,,,,,,,,,,,,,,,,,,,,,89.69254398499834,,,,j,0,0.21447088599961717,None,,,,,,,,,,,,,,,,,,,,,,,,,,,,,,1,,,,2024-04-05_16h41.55.092,V_1_memo_end,2023.2.3,119.48621167876702,2024-04-05 16h42.07.553099 +0200,
stimuli/asdfghertghvgh.jpg,f,,,,,,,,,,,,,,,,,,,,,,,,,,0,3,3,10,,,,,,,,,,,,,,,,,,,,,,,,,,,,,,,,,,,,,92.45497213300041,,,,j,0,0.11106169399863575,None,,,,,,,,,,,,,,,,,,,,,,,,,,,,,,1,,,,2024-04-05_16h41.55.092,V_1_memo_end,2023.2.3,119.48621167876702,2024-04-05 16h42.07.553099 +0200,
stimuli/lituryeyxcfvghjk.jpg,f,,,,,,,,,,,,,,,,,,,,,,,,,,0,4,4,7,,,,,,,,,,,,,,,,,,,,,,,,,,,,,,,,,,,,,95.1308686049997,,,,j,0,0.04898220900213346,None,,,,,,,,,,,,,,,,,,,,,,,,,,,,,,1,,,,2024-04-05_16h41.55.092,V_1_memo_end,2023.2.3,119.48621167876702,2024-04-05 16h42.07.553099 +0200,
stimuli/ihnbvcfgd.jpg,f,,,,,,,,,,,,,,,,,,,,,,,,,,0,5,5,6,,,,,,,,,,,,,,,,,,,,,,,,,,,,,,,,,,,,,97.5178865179987,,,,j,0,0.10045407399957185,None,,,,,,,,,,,,,,,,,,,,,,,,,,,,,,1,,,,2024-04-05_16h41.55.092,V_1_memo_end,2023.2.3,119.48621167876702,2024-04-05 16h42.07.553099 +0200,
stimuli/sdfghjklkjbv.jpg,f,,,,,,,,,,,,,,,,,,,,,,,,,,0,6,6,5,,,,,,,,,,,,,,,,,,,,,,,,,,,,,,,,,,,,,100.51912896499925,,,,j,0,0.1759611749985197,None,,,,,,,,,,,,,,,,,,,,,,,,,,,,,,1,,,,2024-04-05_16h41.55.092,V_1_memo_end,2023.2.3,119.48621167876702,2024-04-05 16h42.07.553099 +0200,
stimuli/gfvbnbg.jpg,j,,,,,,,,,,,,,,,,,,,,,,,,,,0,7,7,13,,,,,,,,,,,,,,,,,,,,,,,,,,,,,,,,,,,,,103.38479987200117,,,,j,1,0.20266974300102447,None,,,,,,,,,,,,,,,,,,,,,,,,,,,,,,1,,,,2024-04-05_16h41.55.092,V_1_memo_end,2023.2.3,119.48621167876702,2024-04-05 16h42.07.553099 +0200,
stimuli/lkjhgfdxsdfghj.jpg,f,,,,,,,,,,,,,,,,,,,,,,,,,,0,8,8,3,,,,,,,,,,,,,,,,,,,,,,,,,,,,,,,,,,,,,106.15853060000154,,,,j,0,0.029320513000129722,None,,,,,,,,,,,,,,,,,,,,,,,,,,,,,,1,,,,2024-04-05_16h41.55.092,V_1_memo_end,2023.2.3,119.48621167876702,2024-04-05 16h42.07.553099 +0200,
stimuli/fvbjgv.jpg,f,,,,,,,,,,,,,,,,,,,,,,,,,,0,9,9,1,,,,,,,,,,,,,,,,,,,,,,,,,,,,,,,,,,,,,108.97927791799884,,,,j,0,0.08418822200110299,None,,,,,,,,,,,,,,,,,,,,,,,,,,,,,,1,,,,2024-04-05_16h41.55.092,V_1_memo_end,2023.2.3,119.48621167876702,2024-04-05 16h42.07.553099 +0200,
stimuli/oelkjhgfcfghjk.jpg,f,,,,,,,,,,,,,,,,,,,,,,,,,,0,10,10,2,,,,,,,,,,,,,,,,,,,,,,,,,,,,,,,,,,,,,111.53693723000106,,,,j,0,0.49775185600083205,None,,,,,,,,,,,,,,,,,,,,,,,,,,,,,,1,,,,2024-04-05_16h41.55.092,V_1_memo_end,2023.2.3,119.48621167876702,2024-04-05 16h42.07.553099 +0200,
stimuli/asdfghjkloelkjhg.jpg,f,,,,,,,,,,,,,,,,,,,,,,,,,,0,11,11,4,,,,,,,,,,,,,,,,,,,,,,,,,,,,,,,,,,,,,114.62972825399993,,,,j,0,0.3909835020022001,None,,,,,,,,,,,,,,,,,,,,,,,,,,,,,,1,,,,2024-04-05_16h41.55.092,V_1_memo_end,2023.2.3,119.48621167876702,2024-04-05 16h42.07.553099 +0200,
stimuli/ztfcvbnhg.jpg,f,,,,,,,,,,,,,,,,,,,,,,,,,,0,12,12,0,,,,,,,,,,,,,,,,,,,,,,,,,,,,,,,,,,,,,117.72257356599948,,,,j,0,0.12414653199812165,None,,,,,,,,,,,,,,,,,,,,,,,,,,,,,,1,,,,2024-04-05_16h41.55.092,V_1_memo_end,2023.2.3,119.48621167876702,2024-04-05 16h42.07.553099 +0200,
stimuli/hhhh.jpg,f,,,,,,,,,,,,,,,,,,,,,,,,,,0,13,13,9,,,,,,,,,,,,,,,,,,,,,,,,,,,,,,,,,,,,,120.17883398000049,,,,j,0,0.11112893799872836,None,,,,,,,,,,,,,,,,,,,,,,,,,,,,,,1,,,,2024-04-05_16h41.55.092,V_1_memo_end,2023.2.3,119.48621167876702,2024-04-05 16h42.07.553099 +0200,
stimuli/erthjnbvcfg.jpg,f,,,,,,,,,,,,,,,,,,,,,,,,,,0,14,14,11,,,,,,,,,,,,,,,,,,,,,,,,,,,,,,,,,,,,,123.54658579600073,,,,j,0,0.20590212999741198,None,,,,,,,,,,,,,,,,,,,,,,,,,,,,,,1,,,,2024-04-05_16h41.55.092,V_1_memo_end,2023.2.3,119.48621167876702,2024-04-05 16h42.07.553099 +0200,
stimuli/zgfdetz.jpg,j,,,,,,,,,,,,,,,,,,,,,,,,,,0,15,15,15,,,,,,,,,,,,,,,,,,,,,,,,,,,,,,,,,,,,,126.08973717199842,,,,j,1,0.19376254099915968,None,,,,,,,,,,,,,,,,,,,,,,,,,,,,,,1,,,,2024-04-05_16h41.55.092,V_1_memo_end,2023.2.3,119.48621167876702,2024-04-05 16h42.07.553099 +0200,
stimuli/img_k0m56.jpg,f,1,0,0,0,0,0,1,categorization,1,1,1,1,living_room,living_room,target,76.0277777777778,49.9722222222222,36,63,168,high,,,,,,,,,0,0,0,0,,,,,,,,,0,0,0,0,,,,,,,,,,,,,,,,,,,,,130.9802870099993,,,,,,,,131.38818651600013,131.38818651600013,134.702776918999,j,0,0.11187653000160935,None,,,,,,,,,,,,,,,,,,,,,,,1,,,,2024-04-05_16h41.55.092,V_1_memo_end,2023.2.3,119.48621167876702,2024-04-05 16h42.07.553099 +0200,
stimuli/img_89dvt.jpg,f,1,0,0,0,0,0,1,categorization,1,1,2,2,living_room,living_room,target,79.9032258064516,63,31,71.4516129032258,212,high,,,,,,,,,0,0,0,0,,,,,,,,,0,1,1,1,,,,,,,,,,,,,,,,,,,,,135.1718606659997,,,,,,,,,,136.6120017630019,j,0,0.14899683000112418,None,,,,,,,,,,,,,,,,,,,,,,,1,,,,2024-04-05_16h41.55.092,V_1_memo_end,2023.2.3,119.48621167876702,2024-04-05 16h42.07.553099 +0200,
stimuli/img_zv0dq.jpg,j,1,0,0,0,0,0,1,categorization,1,1,3,3,living_room,bedroom,distractor,78,56.0625,32,67.03125,304,high,,,,,,,,,0,0,0,0,,,,,,,,,0,2,2,2,,,,,,,,,,,,,,,,,,,,,137.13624208400142,,,,,,,,,,138.82638319200123,j,1,0.10565382200002205,None,,,,,,,,,,,,,,,,,,,,,,,1,,,,2024-04-05_16h41.55.092,V_1_memo_end,2023.2.3,119.48621167876702,2024-04-05 16h42.07.553099 +0200,
stimuli/img_hfj08.jpg,f,1,0,0,0,0,0,1,categorization,1,1,4,4,living_room,living_room,target,86.5897435897436,60.6410256410256,39,73.6153846153846,225,high,,,,,,,,,0,0,0,0,,,,,,,,,0,3,3,3,,,,,,,,,,,,,,,,,,,,,139.29603837800096,,,,,,,,,,140.44654047099903,j,0,0.2304590300009295,None,,,,,,,,,,,,,,,,,,,,,,,1,,,,2024-04-05_16h41.55.092,V_1_memo_end,2023.2.3,119.48621167876702,2024-04-05 16h42.07.553099 +0200,
stimuli/img_xr3up.jpg,f,1,0,0,0,0,0,1,categorization,1,1,5,5,living_room,living_room,target,75.2439024390244,53.4146341463415,41,64.3292682926829,176,high,,,,,,,,,0,0,0,0,,,,,,,,,0,4,4,4,,,,,,,,,,,,,,,,,,,,,141.0400729489993,,,,,,,,,,142.9174737780013,j,0,0.4374670379984309,None,143.6742299840007,,,,,,,,,,,,,,,,,,,,,,1,,,,2024-04-05_16h41.55.092,V_1_memo_end,2023.2.3,119.48621167876702,2024-04-05 16h42.07.553099 +0200,
stimuli/img_hc7o8.jpg,f,1,0,0,0,0,0,1,categorization,1,1,6,6,living_room,living_room,target,35.2068965517241,36.4137931034483,29,35.8103448275862,56,low,,,,,,,,,0,0,0,0,,,,,,,,,0,5,5,5,,,,,,,,,,,,,,,,,,,,,143.7061154280018,,,,,,,,,,145.2278382609984,j,0,0.09728719399936381,None,,,,,,,,,,,,,,,,,,,,,,,1,,,,2024-04-05_16h41.55.092,V_1_memo_end,2023.2.3,119.48621167876702,2024-04-05 16h42.07.553099 +0200,
stimuli/img_injp0.jpg,f,1,0,0,0,0,0,1,categorization,1,1,7,7,living_room,living_room,target,63.65625,30.5,32,47.078125,95,low,,,,,,,,,0,0,0,0,,,,,,,,,0,6,6,6,,,,,,,,,,,,,,,,,,,,,145.7080239019997,,,,,,,,,,147.0613855269985,j,0,0.06653843900130596,None,,,,,,,,,,,,,,,,,,,,,,,1,,,,2024-04-05_16h41.55.092,V_1_memo_end,2023.2.3,119.48621167876702,2024-04-05 16h42.07.553099 +0200,
stimuli/img_fejeo.jpg,f,1,0,0,0,0,0,1,categorization,1,1,8,8,living_room,living_room,target,81.0294117647059,65.3235294117647,34,73.1764705882353,223,high,,,,,,,,,0,0,0,0,,,,,,,,,0,7,7,7,,,,,,,,,,,,,,,,,,,,,147.48379570700126,,,,,,,,,,149.35401524500048,j,0,0.021729091997258365,None,,,,,,,,,,,,,,,,,,,,,,,1,,,,2024-04-05_16h41.55.092,V_1_memo_end,2023.2.3,119.48621167876702,2024-04-05 16h42.07.553099 +0200,
stimuli/img_kost0.jpg,f,1,0,0,0,0,0,1,categorization,1,1,9,9,living_room,living_room,target,64.3030303030303,41.3636363636364,33,52.8333333333333,121,low,,,,,,,,,0,0,0,0,,,,,,,,,0,8,8,8,,,,,,,,,,,,,,,,,,,,,149.7363565630003,,,,,,,,,,151.3292625159993,j,0,0.31647440700180596,None,,,,,,,,,,,,,,,,,,,,,,,1,,,,2024-04-05_16h41.55.092,V_1_memo_end,2023.2.3,119.48621167876702,2024-04-05 16h42.07.553099 +0200,
stimuli/img_xt3jt.jpg,f,1,0,0,0,0,0,1,categorization,1,1,10,10,living_room,living_room,target,61.4242424242424,40.8181818181818,33,51.1212121212121,114,low,,,,,,,,,0,0,0,0,,,,,,,,,0,9,9,9,,,,,,,,,,,,,,,,,,,,,151.9975468369994,,,,,,,,,,153.6431551800015,j,0,1.0585437129993807,None,154.40409246700074,,,,,,,,,,,,,,,,,,,,,,1,,,,2024-04-05_16h41.55.092,V_1_memo_end,2023.2.3,119.48621167876702,2024-04-05 16h42.07.553099 +0200,
stimuli/img_00ojb.jpg,f,1,0,0,0,0,0,1,categorization,1,1,11,11,living_room,living_room,target,82.2702702702703,67.4324324324324,37,74.8513513513514,239,high,,,,,,,,,0,0,0,0,,,,,,,,,0,10,10,10,,,,,,,,,,,,,,,,,,,,,155.06611153300037,,,,,,,,,,156.28378725400034,j,0,0.8335700070019811,None,157.04296020399852,,,,,,,,,,,,,,,,,,,,,,1,,,,2024-04-05_16h41.55.092,V_1_memo_end,2023.2.3,119.48621167876702,2024-04-05 16h42.07.553099 +0200,
stimuli/img_fmgjx.jpg,f,1,0,0,0,0,0,1,categorization,1,1,12,12,living_room,living_room,target,81.5333333333333,56.0666666666667,30,68.8,199,high,,,,,,,,,0,0,0,0,,,,,,,,,0,11,11,11,,,,,,,,,,,,,,,,,,,,,157.47397225199893,,,,,,,,,,158.61323190500116,j,0,1.0649027789986576,None,159.37673189899942,,,,,,,,,,,,,,,,,,,,,,1,,,,2024-04-05_16h41.55.092,V_1_memo_end,2023.2.3,119.48621167876702,2024-04-05 16h42.07.553099 +0200,
stimuli/img_fud7l.jpg,j,1,0,0,0,0,0,1,categorization,1,1,13,13,living_room,kitchen,distractor,57.3846153846154,45.1153846153846,26,51.25,204,low,,,,,,,,,0,0,0,0,,,,,,,,,0,12,12,12,,,,,,,,,,,,,,,,,,,,,160.04034670200053,,,,,,,,,,161.2339691740017,j,1,0.138184880001063,None,,,,,,,,,,,,,,,,,,,,,,,1,,,,2024-04-05_16h41.55.092,V_1_memo_end,2023.2.3,119.48621167876702,2024-04-05 16h42.07.553099 +0200,
stimuli/img_u1i9n.jpg,j,1,0,0,0,0,0,1,categorization,1,1,14,14,living_room,kitchen,distractor,87.4516129032258,61.5161290322581,31,74.4838709677419,648,high,,,,,,,,,0,0,0,0,,,,,,,,,0,13,13,13,,,,,,,,,,,,,,,,,,,,,161.7445705909995,,,,,,,,,,163.37824393600022,j,1,0.14852575700206216,None,,,,,,,,,,,,,,,,,,,,,,,1,,,,2024-04-05_16h41.55.092,V_1_memo_end,2023.2.3,119.48621167876702,2024-04-05 16h42.07.553099 +0200,
stimuli/img_t4sid.jpg,j,1,0,0,0,0,0,1,categorization,1,1,15,15,living_room,kitchen,distractor,59.6206896551724,36,29,47.8103448275862,168,low,,,,,,,,,0,0,0,0,,,,,,,,,0,14,14,14,,,,,,,,,,,,,,,,,,,,,163.89681854800074,,,,,,,,,,165.16170577199955,j,1,0.1528436469998269,None,,,,,,,,,,,,,,,,,,,,,,,1,,,,2024-04-05_16h41.55.092,V_1_memo_end,2023.2.3,119.48621167876702,2024-04-05 16h42.07.553099 +0200,
stimuli/img_o2lar.jpg,f,1,0,0,0,0,0,1,categorization,1,1,16,16,living_room,living_room,target,45.1935483870968,34.6129032258064,31,39.9032258064516,67,low,,,,,,,,,0,0,0,0,,,,,,,,,0,15,15,15,,,,,,,,,,,,,,,,,,,,,165.6679683399998,,,,,,,,,,167.66341204299897,j,0,0.2453655239987711,None,,,,,,,,,,,,,,,,,,,,,,,1,,,,2024-04-05_16h41.55.092,V_1_memo_end,2023.2.3,119.48621167876702,2024-04-05 16h42.07.553099 +0200,
stimuli/img_wwe90.jpg,j,1,0,0,0,0,0,1,categorization,1,1,17,17,living_room,bedroom,distractor,69.6111111111111,51.1111111111111,36,60.3611111111111,220,low,,,,,,,,,0,0,0,0,,,,,,,,,0,16,16,16,,,,,,,,,,,,,,,,,,,,,168.27257535399985,,,,,,,,,,169.7659697449999,j,1,0.09971926999787684,None,,,,,,,,,,,,,,,,,,,,,,,1,,,,2024-04-05_16h41.55.092,V_1_memo_end,2023.2.3,119.48621167876702,2024-04-05 16h42.07.553099 +0200,
stimuli/img_u5hpm.jpg,j,1,0,0,0,0,0,1,categorization,1,1,18,18,living_room,kitchen,distractor,67.3513513513514,39.1891891891892,37,53.2702702702703,228,low,,,,,,,,,0,0,0,0,,,,,,,,,0,17,17,17,,,,,,,,,,,,,,,,,,,,,170.22872152999844,,,,,,,,,,171.28332670099917,j,1,0.23515557100108708,None,,,,,,,,,,,,,,,,,,,,,,,1,,,,2024-04-05_16h41.55.092,V_1_memo_end,2023.2.3,119.48621167876702,2024-04-05 16h42.07.553099 +0200,
stimuli/img_xib79.jpg,f,1,0,0,0,0,0,1,categorization,1,1,19,19,living_room,living_room,target,79.0322580645161,51.8387096774194,31,65.4354838709677,178,high,,,,,,,,,0,0,0,0,,,,,,,,,0,18,18,18,,,,,,,,,,,,,,,,,,,,,171.8780105500009,,,,,,,,,,173.27907789600067,j,0,1.0010597579966998,None,174.03737469599946,,,,,,,,,,,,,,,,,,,,,,1,,,,2024-04-05_16h41.55.092,V_1_memo_end,2023.2.3,119.48621167876702,2024-04-05 16h42.07.553099 +0200,
stimuli/img_8297a.jpg,f,1,0,0,0,0,0,1,categorization,1,1,20,20,living_room,living_room,target,92.0882352941177,76.3823529411765,34,84.2352941176471,288,high,,,,,,,,,0,0,0,0,,,,,,,,,0,19,19,19,,,,,,,,,,,,,,,,,,,,,174.65198448500087,,,,,,,,,,175.9883486209983,j,0,1.263533847999497,None,176.7593886579998,,,,,,,,,,,,,,,,,,,,,,1,,,,2024-04-05_16h41.55.092,V_1_memo_end,2023.2.3,119.48621167876702,2024-04-05 16h42.07.553099 +0200,
stimuli/img_16kib.jpg,f,1,0,0,0,0,0,1,categorization,1,1,21,21,living_room,living_room,target,81.2647058823529,58.8235294117647,34,70.0441176470588,204,high,,,,,,,,,0,0,0,0,,,,,,,,,0,20,20,20,,,,,,,,,,,,,,,,,,,,,177.61169521199918,,,,,,,,,,179.47802387800039,j,0,0.134702944997116,None,,,,,,,,,,,,,,,,,,,,,,,1,,,,2024-04-05_16h41.55.092,V_1_memo_end,2023.2.3,119.48621167876702,2024-04-05 16h42.07.553099 +0200,
stimuli/img_9ro1y.jpg,f,1,0,0,0,0,0,1,categorization,1,1,22,22,living_room,living_room,target,66.9473684210526,49.2105263157895,38,58.0789473684211,144,low,,,,,,,,,0,0,0,0,,,,,,,,,0,21,21,21,,,,,,,,,,,,,,,,,,,,,179.97718504699878,,,,,,,,,,181.042808350001,j,0,0.5122663980000652,None,181.80409674800103,,,,,,,,,,,,,,,,,,,,,,1,,,,2024-04-05_16h41.55.092,V_1_memo_end,2023.2.3,119.48621167876702,2024-04-05 16h42.07.553099 +0200,
stimuli/img_kf7vw.jpg,f,1,0,0,0,0,0,1,categorization,1,1,23,23,living_room,living_room,target,88.3142857142857,59.5142857142857,35,73.9142857142857,227,high,,,,,,,,,0,0,0,0,,,,,,,,,0,22,22,22,,,,,,,,,,,,,,,,,,,,,181.91706212699864,,,,,,,,,,183.80172130700157,j,0,0.09481008899820154,None,,,,,,,,,,,,,,,,,,,,,,,1,,,,2024-04-05_16h41.55.092,V_1_memo_end,2023.2.3,119.48621167876702,2024-04-05 16h42.07.553099 +0200,
stimuli/img_gnxyk.jpg,f,1,0,0,0,0,0,1,categorization,1,1,24,24,living_room,living_room,target,86.4864864864865,72.4054054054054,37,79.4459459459459,269,high,,,,,,,,,0,0,0,0,,,,,,,,,0,23,23,23,,,,,,,,,,,,,,,,,,,,,184.2530129629995,,,,,,,,,,185.30795340999975,j,0,1.1060834449999675,None,186.06552258300144,,,,,,,,,,,,,,,,,,,,,,1,,,,2024-04-05_16h41.55.092,V_1_memo_end,2023.2.3,119.48621167876702,2024-04-05 16h42.07.553099 +0200,
stimuli/img_jpldg.jpg,f,1,0,0,0,0,0,1,categorization,1,1,25,25,living_room,living_room,target,81.7878787878788,58.1212121212121,33,69.9545454545455,203,high,,,,,,,,,0,0,0,0,,,,,,,,,0,24,24,24,,,,,,,,,,,,,,,,,,,,,186.78097326100033,,,,,,,,,,187.83468624200032,j,0,0.03626553899812279,None,,,,,,,,,,,,,,,,,,,,,,,1,,,,2024-04-05_16h41.55.092,V_1_memo_end,2023.2.3,119.48621167876702,2024-04-05 16h42.07.553099 +0200,
stimuli/img_a6u3n.jpg,f,1,0,0,0,0,0,1,categorization,1,1,26,26,living_room,living_room,target,82.6666666666667,61.1212121212121,33,71.8939393939394,215,high,,,,,,,,,0,0,0,0,,,,,,,,,0,25,25,25,,,,,,,,,,,,,,,,,,,,,188.25464444400131,,,,,,,,,,189.84039739799846,j,0,1.0813868609984638,None,190.59592427399912,,,,,,,,,,,,,,,,,,,,,,1,,,,2024-04-05_16h41.55.092,V_1_memo_end,2023.2.3,119.48621167876702,2024-04-05 16h42.07.553099 +0200,
stimuli/img_bbs77.jpg,f,1,0,0,0,0,0,1,categorization,1,1,27,27,living_room,living_room,target,28.7777777777778,19.0555555555556,36,23.9166666666667,29,low,,,,,,,,,0,0,0,0,,,,,,,,,0,26,26,26,,,,,,,,,,,,,,,,,,,,,191.29488402900097,,,,,,,,,,193.12672597300116,j,0,0.16090318900023703,None,,,,,,,,,,,,,,,,,,,,,,,1,,,,2024-04-05_16h41.55.092,V_1_memo_end,2023.2.3,119.48621167876702,2024-04-05 16h42.07.553099 +0200,
stimuli/img_qwtnc.jpg,j,1,0,0,0,0,0,1,categorization,1,1,28,28,living_room,kitchen,distractor,61.2162162162162,32.5945945945946,37,46.9054054054054,156,low,,,,,,,,,0,0,0,0,,,,,,,,,0,27,27,27,,,,,,,,,,,,,,,,,,,,,193.6447385120009,,,,,,,,,,195.14930273799837,j,1,0.31364548800047487,None,,,,,,,,,,,,,,,,,,,,,,,1,,,,2024-04-05_16h41.55.092,V_1_memo_end,2023.2.3,119.48621167876702,2024-04-05 16h42.07.553099 +0200,
,,1,0,0,0,0,0,,,,,,,,,,,,,,,,,,,,,,,,0,0,0,0,,,,,,,,,,,,,,,,,,,,,,,,,,,,,,,,,,,,,,,,,,,,,,,,,,,,,,,,,,,,,,,,,,,,,,1,,,,2024-04-05_16h41.55.092,V_1_memo_end,2023.2.3,119.48621167876702,2024-04-05 16h42.07.553099 +0200,
stimuli/img_2na1o.jpg,f,0,1,0,0,0,0,1,categorization,2,1,1,29,kitchen,kitchen,target,65.3783783783784,50.3243243243243,37,57.8513513513513,295,low,,,,,,,,,0,1,1,1,0,0,0,0,,,,,,,,,,,,,,,,,,,,,,,,,,,,,195.94078475900096,,,,,,,,,,,,,,,,200.4589134509988,j,0,0.1476574560001609,None,,,,,,,,,,,,,,,,,1,,,,2024-04-05_16h41.55.092,V_1_memo_end,2023.2.3,119.48621167876702,2024-04-05 16h42.07.553099 +0200,
stimuli/img_swx2d.jpg,f,0,1,0,0,0,0,1,categorization,2,1,2,30,kitchen,kitchen,target,69.90625,33.6875,32,51.796875,208,low,,,,,,,,,0,1,1,1,0,1,1,1,,,,,,,,,,,,,,,,,,,,,,,,,,,,,200.9544370270014,,,,,,,,,,,,,,,,202.49898566699994,j,0,0.1447318169994105,None,,,,,,,,,,,,,,,,,1,,,,2024-04-05_16h41.55.092,V_1_memo_end,2023.2.3,119.48621167876702,2024-04-05 16h42.07.553099 +0200,
stimuli/img_rych7.jpg,j,0,1,0,0,0,0,1,categorization,2,1,3,31,kitchen,living_room,distractor,30.9444444444444,25.3888888888889,36,28.1666666666667,41,low,,,,,,,,,0,1,1,1,0,2,2,2,,,,,,,,,,,,,,,,,,,,,,,,,,,,,203.03154831999927,,,,,,,,,,,,,,,,204.65540616699946,j,1,0.4708563589992991,None,,,,,,,,,,,,,,,,,1,,,,2024-04-05_16h41.55.092,V_1_memo_end,2023.2.3,119.48621167876702,2024-04-05 16h42.07.553099 +0200,
stimuli/img_1m0fn.jpg,f,0,1,0,0,0,0,1,categorization,2,1,4,32,kitchen,kitchen,target,82.1333333333333,66.8333333333333,30,74.4833333333333,647,high,,,,,,,,,0,1,1,1,0,3,3,3,,,,,,,,,,,,,,,,,,,,,,,,,,,,,205.4793514990015,,,,,,,,,,,,,,,,206.79489134200048,j,0,1.6052509709988954,None,,,,,,,,,,,,,,,,,1,,,,2024-04-05_16h41.55.092,V_1_memo_end,2023.2.3,119.48621167876702,2024-04-05 16h42.07.553099 +0200,
stimuli/img_vbrb7.jpg,f,0,1,0,0,0,0,1,categorization,2,1,5,33,kitchen,kitchen,target,84.7857142857143,74.1071428571429,28,79.4464285714286,713,high,,,,,,,,,0,1,1,1,0,4,4,4,,,,,,,,,,,,,,,,,,,,,,,,,,,,,208.76731727900187,,,,,,,,,,,,,,,,210.1389766300017,j,0,1.0230837439994502,None,,,,,,,,,,,,,,,,,1,,,,2024-04-05_16h41.55.092,V_1_memo_end,2023.2.3,119.48621167876702,2024-04-05 16h42.07.553099 +0200,
stimuli/img_diq9d.jpg,f,0,1,0,0,0,0,1,categorization,2,1,6,34,kitchen,kitchen,target,81,65.6046511627907,43,73.3023255813954,619,high,,,,,,,,,0,1,1,1,0,5,5,5,,,,,,,,,,,,,,,,,,,,,,,,,,,,,211.5305341530002,,,,,,,,,,,,,,,,212.7464204559983,j,0,0.23687385700031882,None,,,,,,,,,,,,,,,,,1,,,,2024-04-05_16h41.55.092,V_1_memo_end,2023.2.3,119.48621167876702,2024-04-05 16h42.07.553099 +0200,
stimuli/img_78zcn.jpg,f,0,1,0,0,0,0,1,categorization,2,1,7,35,kitchen,kitchen,target,69.4814814814815,44.2592592592593,27,56.8703703703704,278,low,,,,,,,,,0,1,1,1,0,6,6,6,,,,,,,,,,,,,,,,,,,,,,,,,,,,,213.3520293449983,,,,,,,,,,,,,,,,214.8710209890014,j,0,0.10964238800079329,None,,,,,,,,,,,,,,,,,1,,,,2024-04-05_16h41.55.092,V_1_memo_end,2023.2.3,119.48621167876702,2024-04-05 16h42.07.553099 +0200,
stimuli/img_m2gan.jpg,f,0,1,0,0,0,0,1,categorization,2,1,8,36,kitchen,kitchen,target,76.2121212121212,54.2424242424242,33,65.2272727272727,446,high,,,,,,,,,0,1,1,1,0,7,7,7,,,,,,,,,,,,,,,,,,,,,,,,,,,,,215.34182382799918,,,,,,,,,,,,,,,,216.7008830900013,j,0,0.7979103910001868,None,,,,,,,,,,,,,,,,,1,,,,2024-04-05_16h41.55.092,V_1_memo_end,2023.2.3,119.48621167876702,2024-04-05 16h42.07.553099 +0200,
stimuli/img_wixv2.jpg,j,0,1,0,0,0,0,1,categorization,2,1,9,37,kitchen,living_room,distractor,29.375,24.85,40,27.1125,38,low,,,,,,,,,0,1,1,1,0,8,8,8,,,,,,,,,,,,,,,,,,,,,,,,,,,,,217.86183894200076,,,,,,,,,,,,,,,,218.95154696200188,j,1,0.36297988500155043,None,,,,,,,,,,,,,,,,,1,,,,2024-04-05_16h41.55.092,V_1_memo_end,2023.2.3,119.48621167876702,2024-04-05 16h42.07.553099 +0200,
stimuli/img_vwrot.jpg,j,0,1,0,0,0,0,1,categorization,2,1,10,38,kitchen,bedroom,distractor,76.9230769230769,62.0769230769231,26,69.5,329.5,high,,,,,,,,,0,1,1,1,0,9,9,9,,,,,,,,,,,,,,,,,,,,,,,,,,,,,219.6840097989989,,,,,,,,,,,,,,,,221.66909906400178,j,1,0.01966271399942343,None,,,,,,,,,,,,,,,,,1,,,,2024-04-05_16h41.55.092,V_1_memo_end,2023.2.3,119.48621167876702,2024-04-05 16h42.07.553099 +0200,
stimuli/img_3eusg.jpg,f,0,1,0,0,0,0,1,categorization,2,1,11,39,kitchen,kitchen,target,70.64,53.36,25,62,377,high,,,,,,,,,0,1,1,1,0,10,10,10,,,,,,,,,,,,,,,,,,,,,,,,,,,,,222.07374633200016,,,,,,,,,,,,,,,,223.16262570099934,j,0,0.1332840169998235,None,,,,,,,,,,,,,,,,,1,,,,2024-04-05_16h41.55.092,V_1_memo_end,2023.2.3,119.48621167876702,2024-04-05 16h42.07.553099 +0200,
stimuli/img_uegbb.jpg,f,0,1,0,0,0,0,1,categorization,2,1,12,40,kitchen,kitchen,target,78.4390243902439,61.0243902439024,41,69.7317073170732,543,high,,,,,,,,,0,1,1,1,0,11,11,11,,,,,,,,,,,,,,,,,,,,,,,,,,,,,223.6629607850009,,,,,,,,,,,,,,,,225.68371093599853,j,0,0.18545440700108884,None,,,,,,,,,,,,,,,,,1,,,,2024-04-05_16h41.55.092,V_1_memo_end,2023.2.3,119.48621167876702,2024-04-05 16h42.07.553099 +0200,
stimuli/img_r8rvk.jpg,j,0,1,0,0,0,0,1,categorization,2,1,13,41,kitchen,bedroom,distractor,76.5,48.9318181818182,44,62.7159090909091,242,low,,,,,,,,,0,1,1,1,0,12,12,12,,,,,,,,,,,,,,,,,,,,,,,,,,,,,226.2281501510006,,,,,,,,,,,,,,,,227.65299888400114,j,1,0.06113140500019654,None,,,,,,,,,,,,,,,,,1,,,,2024-04-05_16h41.55.092,V_1_memo_end,2023.2.3,119.48621167876702,2024-04-05 16h42.07.553099 +0200,
stimuli/img_cjvod.jpg,f,0,1,0,0,0,0,1,categorization,2,1,14,42,kitchen,kitchen,target,74.72,50.24,25,62.48,385,high,,,,,,,,,0,1,1,1,0,13,13,13,,,,,,,,,,,,,,,,,,,,,,,,,,,,,228.08015297900056,,,,,,,,,,,,,,,,229.91561079199892,j,0,0.11387989499780815,None,,,,,,,,,,,,,,,,,1,,,,2024-04-05_16h41.55.092,V_1_memo_end,2023.2.3,119.48621167876702,2024-04-05 16h42.07.553099 +0200,
stimuli/img_z2mg7.jpg,f,0,1,0,0,0,0,1,categorization,2,1,15,43,kitchen,kitchen,target,16.1379310344828,8.03448275862069,29,12.0862068965517,6,low,,,,,,,,,0,1,1,1,0,14,14,14,,,,,,,,,,,,,,,,,,,,,,,,,,,,,230.40058715100167,,,,,,,,,,,,,,,,232.30465243100116,j,0,0.8459401399995841,None,,,,,,,,,,,,,,,,,1,,,,2024-04-05_16h41.55.092,V_1_memo_end,2023.2.3,119.48621167876702,2024-04-05 16h42.07.553099 +0200,
stimuli/img_c0me7.jpg,f,0,1,0,0,0,0,1,categorization,2,1,16,44,kitchen,kitchen,target,68.4,45.6285714285714,35,57.0142857142857,281,low,,,,,,,,,0,1,1,1,0,15,15,15,,,,,,,,,,,,,,,,,,,,,,,,,,,,,233.5104123050005,,,,,,,,,,,,,,,,234.83160311599931,j,0,0.06460511100158328,None,,,,,,,,,,,,,,,,,1,,,,2024-04-05_16h41.55.092,V_1_memo_end,2023.2.3,119.48621167876702,2024-04-05 16h42.07.553099 +0200,
stimuli/img_s37yz.jpg,f,0,1,0,0,0,0,1,categorization,2,1,17,45,kitchen,kitchen,target,83.52,69.88,25,76.7,680,high,,,,,,,,,0,1,1,1,0,16,16,16,,,,,,,,,,,,,,,,,,,,,,,,,,,,,235.25948817400058,,,,,,,,,,,,,,,,236.58934676300123,j,0,0.17127427800005535,None,,,,,,,,,,,,,,,,,1,,,,2024-04-05_16h41.55.092,V_1_memo_end,2023.2.3,119.48621167876702,2024-04-05 16h42.07.553099 +0200,
stimuli/img_bdqmg.jpg,j,0,1,0,0,0,0,1,categorization,2,1,18,46,kitchen,living_room,distractor,47.9722222222222,28.5555555555556,36,38.2638888888889,64,low,,,,,,,,,0,1,1,1,0,17,17,17,,,,,,,,,,,,,,,,,,,,,,,,,,,,,237.11637074800092,,,,,,,,,,,,,,,,238.8295421440016,j,1,0.0035798079989035614,None,,,,,,,,,,,,,,,,,1,,,,2024-04-05_16h41.55.092,V_1_memo_end,2023.2.3,119.48621167876702,2024-04-05 16h42.07.553099 +0200,
stimuli/img_ncr40.jpg,f,0,1,0,0,0,0,1,categorization,2,1,19,47,kitchen,kitchen,target,76.92,52.68,25,64.8,437,high,,,,,,,,,0,1,1,1,0,18,18,18,,,,,,,,,,,,,,,,,,,,,,,,,,,,,239.20106690000102,,,,,,,,,,,,,,,,240.6056124809984,j,0,0.13398988300104975,None,,,,,,,,,,,,,,,,,1,,,,2024-04-05_16h41.55.092,V_1_memo_end,2023.2.3,119.48621167876702,2024-04-05 16h42.07.553099 +0200,
stimuli/img_lszzj.jpg,f,0,1,0,0,0,0,1,categorization,2,1,20,48,kitchen,kitchen,target,68.1428571428571,50.7142857142857,21,59.4285714285714,317,low,,,,,,,,,0,1,1,1,0,19,19,19,,,,,,,,,,,,,,,,,,,,,,,,,,,,,241.10086895399945,,,,,,,,,,,,,,,,242.73900474200127,j,0,3.4106197069995687,None,,,,,,,,,,,,,,,,,1,,,,2024-04-05_16h41.55.092,V_1_memo_end,2023.2.3,119.48621167876702,2024-04-05 16h42.07.553099 +0200,
stimuli/img_epedy.jpg,f,0,1,0,0,0,0,1,categorization,2,1,21,49,kitchen,kitchen,target,79.4782608695652,58.9565217391304,23,69.2173913043478,530,high,,,,,,,,,0,1,1,1,0,20,20,20,,,,,,,,,,,,,,,,,,,,,,,,,,,,,246.52437397800168,,,,,,,,,,,,,,,,248.37716279400047,j,0,0.03594921499825432,None,,,,,,,,,,,,,,,,,1,,,,2024-04-05_16h41.55.092,V_1_memo_end,2023.2.3,119.48621167876702,2024-04-05 16h42.07.553099 +0200,
stimuli/img_0mhms.jpg,f,0,1,0,0,0,0,1,categorization,2,1,22,50,kitchen,kitchen,target,78,55.6857142857143,35,66.8428571428571,481,high,,,,,,,,,0,1,1,1,0,21,21,21,,,,,,,,,,,,,,,,,,,,,,,,,,,,,248.78593031199853,,,,,,,,,,,,,,,,250.4318192360006,j,0,0.2614659649989335,None,,,,,,,,,,,,,,,,,1,,,,2024-04-05_16h41.55.092,V_1_memo_end,2023.2.3,119.48621167876702,2024-04-05 16h42.07.553099 +0200,
stimuli/img_t4xel.jpg,f,0,1,0,0,0,0,1,categorization,2,1,23,51,kitchen,kitchen,target,86.875,66.5625,32,76.71875,681,high,,,,,,,,,0,1,1,1,0,22,22,22,,,,,,,,,,,,,,,,,,,,,,,,,,,,,251.06773642600092,,,,,,,,,,,,,,,,252.56001916999958,j,0,2.2216942330014717,None,,,,,,,,,,,,,,,,,1,,,,2024-04-05_16h41.55.092,V_1_memo_end,2023.2.3,119.48621167876702,2024-04-05 16h42.07.553099 +0200,
stimuli/img_kombf.jpg,f,0,1,0,0,0,0,1,categorization,2,1,24,52,kitchen,kitchen,target,82.9736842105263,66.8684210526316,38,74.9210526315789,657,high,,,,,,,,,0,1,1,1,0,23,23,23,,,,,,,,,,,,,,,,,,,,,,,,,,,,,255.15178260299945,,,,,,,,,,,,,,,,257.14599835899935,j,0,0.3513190500016208,None,,,,,,,,,,,,,,,,,1,,,,2024-04-05_16h41.55.092,V_1_memo_end,2023.2.3,119.48621167876702,2024-04-05 16h42.07.553099 +0200,
stimuli/img_otj9x.jpg,j,0,1,0,0,0,0,1,categorization,2,1,25,53,kitchen,bedroom,distractor,35.3636363636364,10.6666666666667,33,23.0151515151515,33,low,,,,,,,,,0,1,1,1,0,24,24,24,,,,,,,,,,,,,,,,,,,,,,,,,,,,,257.85303732100147,,,,,,,,,,,,,,,,259.17012798400174,j,1,0.9432739010007936,None,,,,,,,,,,,,,,,,,1,,,,2024-04-05_16h41.55.092,V_1_memo_end,2023.2.3,119.48621167876702,2024-04-05 16h42.07.553099 +0200,
stimuli/img_5p2ql.jpg,j,0,1,0,0,0,0,1,categorization,2,1,26,54,kitchen,bedroom,distractor,90.7,75.4,40,83.05,477,high,,,,,,,,,0,1,1,1,0,25,25,25,,,,,,,,,,,,,,,,,,,,,,,,,,,,,260.4877669640009,,,,,,,,,,,,,,,,261.7383768289983,j,1,0.21458333400005358,None,,,,,,,,,,,,,,,,,1,,,,2024-04-05_16h41.55.092,V_1_memo_end,2023.2.3,119.48621167876702,2024-04-05 16h42.07.553099 +0200,
stimuli/img_isw29.jpg,f,0,1,0,0,0,0,1,categorization,2,1,27,55,kitchen,kitchen,target,52.1785714285714,23.3928571428571,28,37.7857142857143,75,low,,,,,,,,,0,1,1,1,0,26,26,26,,,,,,,,,,,,,,,,,,,,,,,,,,,,,262.30631019299835,,,,,,,,,,,,,,,,263.77416956399975,j,0,0.3072543060006865,None,,,,,,,,,,,,,,,,,1,,,,2024-04-05_16h41.55.092,V_1_memo_end,2023.2.3,119.48621167876702,2024-04-05 16h42.07.553099 +0200,
stimuli/img_aqu2d.jpg,f,0,1,0,0,0,0,1,categorization,2,1,28,56,kitchen,kitchen,target,81.1470588235294,67.5588235294118,34,74.3529411764706,641,high,,,,,,,,,0,1,1,1,0,27,27,27,,,,,,,,,,,,,,,,,,,,,,,,,,,,,264.44590478399914,,,,,,,,,,,,,,,,265.60624767699846,j,0,0.25817235100112157,None,,,,,,,,,,,,,,,,,1,,,,2024-04-05_16h41.55.092,V_1_memo_end,2023.2.3,119.48621167876702,2024-04-05 16h42.07.553099 +0200,
,,0,1,0,0,0,0,,,,,,,,,,,,,,,,,,,,,,,,0,1,1,1,,,,,,,,,,,,,,,,,,,,,,,,,,,,,,,,,,,,,,,,,,,,,,,,,,,,,,,,,,,,,,,,,,,,,,1,,,,2024-04-05_16h41.55.092,V_1_memo_end,2023.2.3,119.48621167876702,2024-04-05 16h42.07.553099 +0200,
stimuli/img_sk2ou.jpg,f,0,0,1,0,0,0,1,categorization,3,2,1,57,living_room,living_room,target,18.3157894736842,22.2894736842105,38,20.3026315789474,20,low,,,,,,,,,0,2,2,2,,,,,,,,,,,,,0,0,0,0,,,,,,,,,,,,,,,,,266.4535490679991,,,,,,,,,,269.29478822799865,j,0,0.3628740589992958,None,,,,,,,266.72353218400167,266.72353218400167,,,,,,,,,,,,,,,1,,,,2024-04-05_16h41.55.092,V_1_memo_end,2023.2.3,119.48621167876702,2024-04-05 16h42.07.553099 +0200,
stimuli/img_mvoj8.jpg,f,0,0,1,0,0,0,1,categorization,3,2,2,58,living_room,living_room,target,89.8333333333333,69.9166666666667,36,79.875,272,high,,,,,,,,,0,2,2,2,,,,,,,,,,,,,0,1,1,1,,,,,,,,,,,,,,,,,270.0192697329985,,,,,,,,,,271.48387994600125,j,0,0.017741202002071077,None,,,,,,,,,,,,,,,,,,,,,,,1,,,,2024-04-05_16h41.55.092,V_1_memo_end,2023.2.3,119.48621167876702,2024-04-05 16h42.07.553099 +0200,
stimuli/img_xy930.jpg,f,0,0,1,0,0,0,1,categorization,3,2,3,59,living_room,living_room,target,70.9705882352941,47.0294117647059,34,59,148,high,,,,,,,,,0,2,2,2,,,,,,,,,,,,,0,2,2,2,,,,,,,,,,,,,,,,,271.8705098270002,,,,,,,,,,273.8509284319989,j,0,0.3905713960011781,None,274.6062183979993,,,,,,,,,,,,,,,,,,,,,,1,,,,2024-04-05_16h41.55.092,V_1_memo_end,2023.2.3,119.48621167876702,2024-04-05 16h42.07.553099 +0200,
stimuli/img_j856a.jpg,f,0,0,1,0,0,0,1,categorization,3,2,4,60,living_room,living_room,target,37.96875,27.40625,32,32.6875,52,low,,,,,,,,,0,2,2,2,,,,,,,,,,,,,0,3,3,3,,,,,,,,,,,,,,,,,274.623360870999,,,,,,,,,,275.8901752130005,j,0,0.923620508001477,None,276.66085927400127,,,,,,,,,,,,,,,,,,,,,,1,,,,2024-04-05_16h41.55.092,V_1_memo_end,2023.2.3,119.48621167876702,2024-04-05 16h42.07.553099 +0200,
stimuli/img_v6kq9.jpg,j,0,0,1,0,0,0,1,categorization,3,2,5,61,living_room,kitchen,distractor,71.1842105263158,49.5,38,60.3421052631579,330,low,,,,,,,,,0,2,2,2,,,,,,,,,,,,,0,4,4,4,,,,,,,,,,,,,,,,,277.17643025800135,,,,,,,,,,278.35810808300084,j,1,0.18715366799733602,None,,,,,,,,,,,,,,,,,,,,,,,1,,,,2024-04-05_16h41.55.092,V_1_memo_end,2023.2.3,119.48621167876702,2024-04-05 16h42.07.553099 +0200,
stimuli/img_luk7x.jpg,f,0,0,1,0,0,0,1,categorization,3,2,6,62,living_room,living_room,target,70.15625,49.09375,32,59.625,149,high,,,,,,,,,0,2,2,2,,,,,,,,,,,,,0,5,5,5,,,,,,,,,,,,,,,,,278.91831776600156,,,,,,,,,,280.35875025800124,j,0,0.17409082800077158,None,,,,,,,,,,,,,,,,,,,,,,,1,,,,2024-04-05_16h41.55.092,V_1_memo_end,2023.2.3,119.48621167876702,2024-04-05 16h42.07.553099 +0200,
stimuli/img_95hiv.jpg,f,0,0,1,0,0,0,1,categorization,3,2,7,63,living_room,living_room,target,84.1764705882353,65.1176470588235,34,74.6470588235294,238,high,,,,,,,,,0,2,2,2,,,,,,,,,,,,,0,6,6,6,,,,,,,,,,,,,,,,,280.88511444300093,,,,,,,,,,282.5383040909983,j,0,0.1837772769977164,None,,,,,,,,,,,,,,,,,,,,,,,1,,,,2024-04-05_16h41.55.092,V_1_memo_end,2023.2.3,119.48621167876702,2024-04-05 16h42.07.553099 +0200,
stimuli/img_hbemf.jpg,f,0,0,1,0,0,0,1,categorization,3,2,8,64,living_room,living_room,target,81.5526315789474,69.2894736842105,38,75.4210526315789,241,high,,,,,,,,,0,2,2,2,,,,,,,,,,,,,0,7,7,7,,,,,,,,,,,,,,,,,283.0896300489985,,,,,,,,,,284.74507266,j,0,0.015001255000242963,None,,,,,,,,,,,,,,,,,,,,,,,1,,,,2024-04-05_16h41.55.092,V_1_memo_end,2023.2.3,119.48621167876702,2024-04-05 16h42.07.553099 +0200,
stimuli/img_8mkbv.jpg,j,0,0,1,0,0,0,1,categorization,3,2,9,65,living_room,kitchen,distractor,83.85,66.325,40,75.0875,661,high,,,,,,,,,0,2,2,2,,,,,,,,,,,,,0,8,8,8,,,,,,,,,,,,,,,,,285.1339971839989,,,,,,,,,,286.31520386800184,j,1,0.08153484600188676,None,,,,,,,,,,,,,,,,,,,,,,,1,,,,2024-04-05_16h41.55.092,V_1_memo_end,2023.2.3,119.48621167876702,2024-04-05 16h42.07.553099 +0200,
stimuli/img_ce55l.jpg,j,0,0,1,0,0,0,1,categorization,3,2,10,66,living_room,bedroom,distractor,84.4117647058823,65.4705882352941,34,74.9411764705882,394,high,,,,,,,,,0,2,2,2,,,,,,,,,,,,,0,9,9,9,,,,,,,,,,,,,,,,,286.77593579400127,,,,,,,,,,287.99113602099897,j,1,0.017341929997201078,None,,,,,,,,,,,,,,,,,,,,,,,1,,,,2024-04-05_16h41.55.092,V_1_memo_end,2023.2.3,119.48621167876702,2024-04-05 16h42.07.553099 +0200,
stimuli/img_9oofc.jpg,f,0,0,1,0,0,0,1,categorization,3,2,11,67,living_room,living_room,target,83,66.1351351351351,37,74.5675675675676,236,high,,,,,,,,,0,2,2,2,,,,,,,,,,,,,0,10,10,10,,,,,,,,,,,,,,,,,288.37939178599845,,,,,,,,,,289.6671926050003,j,0,0.3028184479990159,None,,,,,,,,,,,,,,,,,,,,,,,1,,,,2024-04-05_16h41.55.092,V_1_memo_end,2023.2.3,119.48621167876702,2024-04-05 16h42.07.553099 +0200,
stimuli/img_hmmra.jpg,f,0,0,1,0,0,0,1,categorization,3,2,12,68,living_room,living_room,target,52.3055555555556,36.1944444444444,36,44.25,86,low,,,,,,,,,0,2,2,2,,,,,,,,,,,,,0,11,11,11,,,,,,,,,,,,,,,,,290.32418327300184,,,,,,,,,,291.5919569969992,j,0,0.026351675001933472,None,,,,,,,,,,,,,,,,,,,,,,,1,,,,2024-04-05_16h41.55.092,V_1_memo_end,2023.2.3,119.48621167876702,2024-04-05 16h42.07.553099 +0200,
stimuli/img_yt3ea.jpg,j,0,0,1,0,0,0,1,categorization,3,2,13,69,living_room,bedroom,distractor,13.1470588235294,10.3235294117647,34,11.7352941176471,8,low,,,,,,,,,0,2,2,2,,,,,,,,,,,,,0,12,12,12,,,,,,,,,,,,,,,,,291.9839344889988,,,,,,,,,,293.9478281410011,j,1,0.27526742099871626,None,,,,,,,,,,,,,,,,,,,,,,,1,,,,2024-04-05_16h41.55.092,V_1_memo_end,2023.2.3,119.48621167876702,2024-04-05 16h42.07.553099 +0200,
stimuli/img_b21d7.jpg,f,0,0,1,0,0,0,1,categorization,3,2,14,70,living_room,living_room,target,26.8055555555556,13.8611111111111,36,20.3333333333333,21,low,,,,,,,,,0,2,2,2,,,,,,,,,,,,,0,13,13,13,,,,,,,,,,,,,,,,,294.57541005299936,,,,,,,,,,296.51311835199886,j,0,0.03489974700278253,None,,,,,,,,,,,,,,,,,,,,,,,1,,,,2024-04-05_16h41.55.092,V_1_memo_end,2023.2.3,119.48621167876702,2024-04-05 16h42.07.553099 +0200,
stimuli/img_4y7mh.jpg,f,0,0,1,0,0,0,1,categorization,3,2,15,71,living_room,living_room,target,51.9166666666667,38.2222222222222,36,45.0694444444444,89,low,,,,,,,,,0,2,2,2,,,,,,,,,,,,,0,14,14,14,,,,,,,,,,,,,,,,,296.9184932200005,,,,,,,,,,298.468598817999,j,0,0.07704091899722698,None,,,,,,,,,,,,,,,,,,,,,,,1,,,,2024-04-05_16h41.55.092,V_1_memo_end,2023.2.3,119.48621167876702,2024-04-05 16h42.07.553099 +0200,
stimuli/img_abobq.jpg,f,0,0,1,0,0,0,1,categorization,3,2,16,72,living_room,living_room,target,73.5,51.1785714285714,28,62.3392857142857,165,high,,,,,,,,,0,2,2,2,,,,,,,,,,,,,0,15,15,15,,,,,,,,,,,,,,,,,298.90668279799866,,,,,,,,,,300.04406623400064,j,0,0.36438682899824926,None,,,,,,,,,,,,,,,,,,,,,,,1,,,,2024-04-05_16h41.55.092,V_1_memo_end,2023.2.3,119.48621167876702,2024-04-05 16h42.07.553099 +0200,
stimuli/img_o30wb.jpg,f,0,0,1,0,0,0,1,categorization,3,2,17,73,living_room,living_room,target,81.6923076923077,66.5128205128205,39,74.1025641025641,229,high,,,,,,,,,0,2,2,2,,,,,,,,,,,,,0,16,16,16,,,,,,,,,,,,,,,,,300.770071930001,,,,,,,,,,301.9783625249984,j,0,0.0520671800004493,None,,,,,,,,,,,,,,,,,,,,,,,1,,,,2024-04-05_16h41.55.092,V_1_memo_end,2023.2.3,119.48621167876702,2024-04-05 16h42.07.553099 +0200,
stimuli/img_99exx.jpg,f,0,0,1,0,0,0,1,categorization,3,2,18,74,living_room,living_room,target,69.5588235294118,53.6764705882353,34,61.6176470588235,161,high,,,,,,,,,0,2,2,2,,,,,,,,,,,,,0,17,17,17,,,,,,,,,,,,,,,,,302.39522505900095,,,,,,,,,,303.8492398039998,j,0,0.2688653549994342,None,,,,,,,,,,,,,,,,,,,,,,,1,,,,2024-04-05_16h41.55.092,V_1_memo_end,2023.2.3,119.48621167876702,2024-04-05 16h42.07.553099 +0200,
stimuli/img_tbs4n.jpg,f,0,0,1,0,0,0,1,categorization,3,2,19,75,living_room,living_room,target,77.4722222222222,58.1388888888889,36,67.8055555555556,192,high,,,,,,,,,0,2,2,2,,,,,,,,,,,,,0,18,18,18,,,,,,,,,,,,,,,,,304.4761380460004,,,,,,,,,,306.2153805550006,j,0,0.30438874600076815,None,,,,,,,,,,,,,,,,,,,,,,,1,,,,2024-04-05_16h41.55.092,V_1_memo_end,2023.2.3,119.48621167876702,2024-04-05 16h42.07.553099 +0200,
stimuli/img_cic06.jpg,f,0,0,1,0,0,0,1,categorization,3,2,20,76,living_room,living_room,target,86.0857142857143,69.5142857142857,35,77.8,260,high,,,,,,,,,0,2,2,2,,,,,,,,,,,,,0,19,19,19,,,,,,,,,,,,,,,,,306.8941427339996,,,,,,,,,,308.50084320099995,j,0,0.007648873001016909,None,,,,,,,,,,,,,,,,,,,,,,,1,,,,2024-04-05_16h41.55.092,V_1_memo_end,2023.2.3,119.48621167876702,2024-04-05 16h42.07.553099 +0200,
stimuli/img_l42rg.jpg,f,0,0,1,0,0,0,1,categorization,3,2,21,77,living_room,living_room,target,63.1578947368421,52.6052631578947,38,57.8815789473684,142,low,,,,,,,,,0,2,2,2,,,,,,,,,,,,,0,20,20,20,,,,,,,,,,,,,,,,,308.8653702590018,,,,,,,,,,310.11739392099844,j,0,0.19928077800068422,None,,,,,,,,,,,,,,,,,,,,,,,1,,,,2024-04-05_16h41.55.092,V_1_memo_end,2023.2.3,119.48621167876702,2024-04-05 16h42.07.553099 +0200,
stimuli/img_vh7v8.jpg,f,0,0,1,0,0,0,1,categorization,3,2,22,78,living_room,living_room,target,79.2894736842105,58.7894736842105,38,69.0394736842105,200,high,,,,,,,,,0,2,2,2,,,,,,,,,,,,,0,21,21,21,,,,,,,,,,,,,,,,,310.67464821500107,,,,,,,,,,312.4437804480003,j,0,0.3383675690020027,None,,,,,,,,,,,,,,,,,,,,,,,1,,,,2024-04-05_16h41.55.092,V_1_memo_end,2023.2.3,119.48621167876702,2024-04-05 16h42.07.553099 +0200,
stimuli/img_09lgm.jpg,j,0,0,1,0,0,0,1,categorization,3,2,23,79,living_room,kitchen,distractor,85.2258064516129,62.8387096774194,31,74.0322580645161,635,high,,,,,,,,,0,2,2,2,,,,,,,,,,,,,0,22,22,22,,,,,,,,,,,,,,,,,313.15156568900056,,,,,,,,,,314.6817507929991,j,1,0.24855584599936265,None,,,,,,,,,,,,,,,,,,,,,,,1,,,,2024-04-05_16h41.55.092,V_1_memo_end,2023.2.3,119.48621167876702,2024-04-05 16h42.07.553099 +0200,
stimuli/img_66fuf.jpg,j,0,0,1,0,0,0,1,categorization,3,2,24,80,living_room,kitchen,distractor,80.875,64,32,72.4375,604,high,,,,,,,,,0,2,2,2,,,,,,,,,,,,,0,23,23,23,,,,,,,,,,,,,,,,,315.30122844799916,,,,,,,,,,316.9245595399989,j,1,0.3594071769985021,None,,,,,,,,,,,,,,,,,,,,,,,1,,,,2024-04-05_16h41.55.092,V_1_memo_end,2023.2.3,119.48621167876702,2024-04-05 16h42.07.553099 +0200,
stimuli/img_mh6x6.jpg,f,0,0,1,0,0,0,1,categorization,3,2,25,81,living_room,living_room,target,58.8888888888889,52.8611111111111,36,55.875,135,low,,,,,,,,,0,2,2,2,,,,,,,,,,,,,0,24,24,24,,,,,,,,,,,,,,,,,317.649039852,,,,,,,,,,319.2658406219998,j,0,0.04940017400076613,None,,,,,,,,,,,,,,,,,,,,,,,1,,,,2024-04-05_16h41.55.092,V_1_memo_end,2023.2.3,119.48621167876702,2024-04-05 16h42.07.553099 +0200,
stimuli/img_73pyk.jpg,f,0,0,1,0,0,0,1,categorization,3,2,26,82,living_room,living_room,target,70.7837837837838,47.1351351351351,37,58.9594594594595,147,high,,,,,,,,,0,2,2,2,,,,,,,,,,,,,0,25,25,25,,,,,,,,,,,,,,,,,319.67084027500096,,,,,,,,,,321.24749828900167,j,0,0.021496105000551324,None,,,,,,,,,,,,,,,,,,,,,,,1,,,,2024-04-05_16h41.55.092,V_1_memo_end,2023.2.3,119.48621167876702,2024-04-05 16h42.07.553099 +0200,
stimuli/img_gzbdr.jpg,j,0,0,1,0,0,0,1,categorization,3,2,27,83,living_room,bedroom,distractor,30.2352941176471,18.6176470588235,34,24.4264705882353,39,low,,,,,,,,,0,2,2,2,,,,,,,,,,,,,0,26,26,26,,,,,,,,,,,,,,,,,321.6333655119997,,,,,,,,,,323.1425285010009,j,1,0.08459045299969148,None,,,,,,,,,,,,,,,,,,,,,,,1,,,,2024-04-05_16h41.55.092,V_1_memo_end,2023.2.3,119.48621167876702,2024-04-05 16h42.07.553099 +0200,
stimuli/img_37hgm.jpg,f,0,0,1,0,0,0,1,categorization,3,2,28,84,living_room,living_room,target,68.1212121212121,52.8181818181818,33,60.469696969697,155,high,,,,,,,,,0,2,2,2,,,,,,,,,,,,,0,27,27,27,,,,,,,,,,,,,,,,,323.5955621210014,,,,,,,,,,324.92535003300145,j,0,0.3409547450028185,None,,,,,,,,,,,,,,,,,,,,,,,1,,,,2024-04-05_16h41.55.092,V_1_memo_end,2023.2.3,119.48621167876702,2024-04-05 16h42.07.553099 +0200,
,,0,0,1,0,0,0,,,,,,,,,,,,,,,,,,,,,,,,0,2,2,2,,,,,,,,,,,,,,,,,,,,,,,,,,,,,,,,,,,,,,,,,,,,,,,,,,,,,,,,,,,,,,,,,,,,,,1,,,,2024-04-05_16h41.55.092,V_1_memo_end,2023.2.3,119.48621167876702,2024-04-05 16h42.07.553099 +0200,
stimuli/img_cvyc3.jpg,f,0,0,0,1,0,0,1,categorization,4,1,1,85,bedroom,bedroom,target,85.8928571428571,75.1785714285714,28,80.5357142857143,451,high,,,,,,,,,0,3,3,3,,,,,,,,,,,,,,,,,0,0,0,0,,,,,,,,,,,,,325.8161653040006,,,,,,,,,,,,,,,,,,,,,,,326.13591609500145,326.13591609500145,328.56939266599875,j,0,0.03123422999851755,None,,,,,,,,1,,,,2024-04-05_16h41.55.092,V_1_memo_end,2023.2.3,119.48621167876702,2024-04-05 16h42.07.553099 +0200,
stimuli/img_v0i83.jpg,f,0,0,0,1,0,0,1,categorization,4,1,2,86,bedroom,bedroom,target,83.3333333333333,57.6296296296296,27,70.4814814814815,340,high,,,,,,,,,0,3,3,3,,,,,,,,,,,,,,,,,0,1,1,1,,,,,,,,,,,,,328.98428089200024,,,,,,,,,,,,,,,,,,,,,,,,,330.1887240290016,j,0,0.1830153769988101,None,,,,,,,,1,,,,2024-04-05_16h41.55.092,V_1_memo_end,2023.2.3,119.48621167876702,2024-04-05 16h42.07.553099 +0200,
stimuli/img_4yy1j.jpg,f,0,0,0,1,0,0,1,categorization,4,1,3,87,bedroom,bedroom,target,75.9393939393939,53.6060606060606,33,64.7727272727273,264,high,,,,,,,,,0,3,3,3,,,,,,,,,,,,,,,,,0,2,2,2,,,,,,,,,,,,,330.74227064300067,,,,,,,,,,,,,,,,,,,,,,,,,331.85840836699936,j,0,0.15099430500049493,None,,,,,,,,1,,,,2024-04-05_16h41.55.092,V_1_memo_end,2023.2.3,119.48621167876702,2024-04-05 16h42.07.553099 +0200,
stimuli/img_yteqw.jpg,f,0,0,0,1,0,0,1,categorization,4,1,4,88,bedroom,bedroom,target,68.1212121212121,44.3030303030303,33,56.2121212121212,180,low,,,,,,,,,0,3,3,3,,,,,,,,,,,,,,,,,0,3,3,3,,,,,,,,,,,,,332.3822795990018,,,,,,,,,,,,,,,,,,,,,,,,,333.4787747959999,j,0,0.16945268199924612,None,,,,,,,,1,,,,2024-04-05_16h41.55.092,V_1_memo_end,2023.2.3,119.48621167876702,2024-04-05 16h42.07.553099 +0200,
stimuli/img_i0its.jpg,f,0,0,0,1,0,0,1,categorization,4,1,5,89,bedroom,bedroom,target,89.2,75.1666666666667,30,82.1833333333333,469,high,,,,,,,,,0,3,3,3,,,,,,,,,,,,,,,,,0,4,4,4,,,,,,,,,,,,,334.01489741299883,,,,,,,,,,,,,,,,,,,,,,,,,335.36839769200014,j,0,0.16305549999742652,None,,,,,,,,1,,,,2024-04-05_16h41.55.092,V_1_memo_end,2023.2.3,119.48621167876702,2024-04-05 16h42.07.553099 +0200,
stimuli/img_ur4j0.jpg,f,0,0,0,1,0,0,1,categorization,4,1,6,90,bedroom,bedroom,target,37.9583333333333,18.7916666666667,24,28.375,48,low,,,,,,,,,0,3,3,3,,,,,,,,,,,,,,,,,0,5,5,5,,,,,,,,,,,,,335.88822073900155,,,,,,,,,,,,,,,,,,,,,,,,,337.2716250670019,j,0,0.026708040000812616,None,,,,,,,,1,,,,2024-04-05_16h41.55.092,V_1_memo_end,2023.2.3,119.48621167876702,2024-04-05 16h42.07.553099 +0200,
stimuli/img_13ozs.jpg,f,0,0,0,1,0,0,1,categorization,4,1,7,91,bedroom,bedroom,target,36.5588235294118,21.5,34,29.0294117647059,51,low,,,,,,,,,0,3,3,3,,,,,,,,,,,,,,,,,0,6,6,6,,,,,,,,,,,,,337.65991677700003,,,,,,,,,,,,,,,,,,,,,,,,,338.7314474900013,j,0,0.2273171490014647,None,,,,,,,,1,,,,2024-04-05_16h41.55.092,V_1_memo_end,2023.2.3,119.48621167876702,2024-04-05 16h42.07.553099 +0200,
stimuli/img_d9ogj.jpg,f,0,0,0,1,0,0,1,categorization,4,1,8,92,bedroom,bedroom,target,77.3214285714286,50.2857142857143,28,63.8035714285714,250,high,,,,,,,,,0,3,3,3,,,,,,,,,,,,,,,,,0,7,7,7,,,,,,,,,,,,,339.3281505080013,,,,,,,,,,,,,,,,,,,,,,,,,341.29480235699884,j,0,0.025861794001684757,None,,,,,,,,1,,,,2024-04-05_16h41.55.092,V_1_memo_end,2023.2.3,119.48621167876702,2024-04-05 16h42.07.553099 +0200,
stimuli/img_uttnz.jpg,f,0,0,0,1,0,0,1,categorization,4,1,9,93,bedroom,bedroom,target,72.741935483871,51.8387096774194,31,62.2903225806452,237,low,,,,,,,,,0,3,3,3,,,,,,,,,,,,,,,,,0,8,8,8,,,,,,,,,,,,,341.6718484660014,,,,,,,,,,,,,,,,,,,,,,,,,343.2253550099995,j,0,0.2197528559991042,None,,,,,,,,1,,,,2024-04-05_16h41.55.092,V_1_memo_end,2023.2.3,119.48621167876702,2024-04-05 16h42.07.553099 +0200,
stimuli/img_x8jid.jpg,f,0,0,0,1,0,0,1,categorization,4,1,10,94,bedroom,bedroom,target,89.3214285714286,66.4642857142857,28,77.8928571428571,425,high,,,,,,,,,0,3,3,3,,,,,,,,,,,,,,,,,0,9,9,9,,,,,,,,,,,,,343.80715779000093,,,,,,,,,,,,,,,,,,,,,,,,,345.77007167099873,j,0,0.34788354999909643,None,,,,,,,,1,,,,2024-04-05_16h41.55.092,V_1_memo_end,2023.2.3,119.48621167876702,2024-04-05 16h42.07.553099 +0200,
stimuli/img_di9lr.jpg,j,0,0,0,1,0,0,1,categorization,4,1,11,95,bedroom,kitchen,distractor,65.258064516129,40.5161290322581,31,52.8870967741936,217,low,,,,,,,,,0,3,3,3,,,,,,,,,,,,,,,,,0,10,10,10,,,,,,,,,,,,,346.4901822749998,,,,,,,,,,,,,,,,,,,,,,,,,348.04870433199903,j,1,0.1492041320016142,None,,,,,,,,1,,,,2024-04-05_16h41.55.092,V_1_memo_end,2023.2.3,119.48621167876702,2024-04-05 16h42.07.553099 +0200,
stimuli/img_np28f.jpg,j,0,0,0,1,0,0,1,categorization,4,1,12,96,bedroom,kitchen,distractor,78.2352941176471,44.6764705882353,34,61.4558823529412,355,low,,,,,,,,,0,3,3,3,,,,,,,,,,,,,,,,,0,11,11,11,,,,,,,,,,,,,348.5641306510006,,,,,,,,,,,,,,,,,,,,,,,,,349.71670083799836,j,1,0.1427336880005896,None,,,,,,,,1,,,,2024-04-05_16h41.55.092,V_1_memo_end,2023.2.3,119.48621167876702,2024-04-05 16h42.07.553099 +0200,
stimuli/img_i64cx.jpg,j,0,0,0,1,0,0,1,categorization,4,1,13,97,bedroom,living_room,distractor,79.5128205128205,60.7179487179487,39,70.1153846153846,205,high,,,,,,,,,0,3,3,3,,,,,,,,,,,,,,,,,0,12,12,12,,,,,,,,,,,,,350.23250314899997,,,,,,,,,,,,,,,,,,,,,,,,,351.99419390099865,j,1,0.04870938299791305,None,,,,,,,,1,,,,2024-04-05_16h41.55.092,V_1_memo_end,2023.2.3,119.48621167876702,2024-04-05 16h42.07.553099 +0200,
stimuli/img_91ht8.jpg,f,0,0,0,1,0,0,1,categorization,4,1,14,98,bedroom,bedroom,target,90.4333333333333,74.0666666666667,30,82.25,470,high,,,,,,,,,0,3,3,3,,,,,,,,,,,,,,,,,0,13,13,13,,,,,,,,,,,,,352.4169111689989,,,,,,,,,,,,,,,,,,,,,,,,,353.74490702800176,j,0,0.214682523997908,None,,,,,,,,1,,,,2024-04-05_16h41.55.092,V_1_memo_end,2023.2.3,119.48621167876702,2024-04-05 16h42.07.553099 +0200,
stimuli/img_xz4gr.jpg,f,0,0,0,1,0,0,1,categorization,4,1,15,99,bedroom,bedroom,target,83.125,58.84375,32,70.984375,347,high,,,,,,,,,0,3,3,3,,,,,,,,,,,,,,,,,0,14,14,14,,,,,,,,,,,,,354.3394711180008,,,,,,,,,,,,,,,,,,,,,,,,,356.30440883100164,j,0,0.18156128099872149,None,,,,,,,,1,,,,2024-04-05_16h41.55.092,V_1_memo_end,2023.2.3,119.48621167876702,2024-04-05 16h42.07.553099 +0200,
stimuli/img_ys3qz.jpg,f,0,0,0,1,0,0,1,categorization,4,1,16,100,bedroom,bedroom,target,46.2972972972973,29.7837837837838,37,38.0405405405405,77,low,,,,,,,,,0,3,3,3,,,,,,,,,,,,,,,,,0,15,15,15,,,,,,,,,,,,,356.8593740719989,,,,,,,,,,,,,,,,,,,,,,,,,357.93115810499876,j,0,0.3287599390023388,None,,,,,,,,1,,,,2024-04-05_16h41.55.092,V_1_memo_end,2023.2.3,119.48621167876702,2024-04-05 16h42.07.553099 +0200,
stimuli/img_x1lo7.jpg,j,0,0,0,1,0,0,1,categorization,4,1,17,101,bedroom,kitchen,distractor,79.4814814814815,62.2592592592593,27,70.8703703703704,570,high,,,,,,,,,0,3,3,3,,,,,,,,,,,,,,,,,0,16,16,16,,,,,,,,,,,,,358.623453188,,,,,,,,,,,,,,,,,,,,,,,,,360.57873505799944,j,1,0.15114655099750962,None,,,,,,,,1,,,,2024-04-05_16h41.55.092,V_1_memo_end,2023.2.3,119.48621167876702,2024-04-05 16h42.07.553099 +0200,
stimuli/img_i84x0.jpg,f,0,0,0,1,0,0,1,categorization,4,1,18,102,bedroom,bedroom,target,82.1290322580645,69.9354838709677,31,76.0322580645161,406,high,,,,,,,,,0,3,3,3,,,,,,,,,,,,,,,,,0,17,17,17,,,,,,,,,,,,,361.0912959829984,,,,,,,,,,,,,,,,,,,,,,,,,363.1063158479992,j,0,0.28475625699866214,None,,,,,,,,1,,,,2024-04-05_16h41.55.092,V_1_memo_end,2023.2.3,119.48621167876702,2024-04-05 16h42.07.553099 +0200,
stimuli/img_opxap.jpg,f,0,0,0,1,0,0,1,categorization,4,1,19,103,bedroom,bedroom,target,79.8823529411765,55.6764705882353,34,67.7794117647059,309,high,,,,,,,,,0,3,3,3,,,,,,,,,,,,,,,,,0,18,18,18,,,,,,,,,,,,,363.7489809430008,,,,,,,,,,,,,,,,,,,,,,,,,365.2046099799991,j,0,0.18625175499983015,None,,,,,,,,1,,,,2024-04-05_16h41.55.092,V_1_memo_end,2023.2.3,119.48621167876702,2024-04-05 16h42.07.553099 +0200,
stimuli/img_07c1w.jpg,f,0,0,0,1,0,0,1,categorization,4,1,20,104,bedroom,bedroom,target,78.7567567567568,63.2162162162162,37,70.9864864864865,348,high,,,,,,,,,0,3,3,3,,,,,,,,,,,,,,,,,0,19,19,19,,,,,,,,,,,,,365.7507856209995,,,,,,,,,,,,,,,,,,,,,,,,,367.0099178540004,j,0,0.19899478899969836,None,,,,,,,,1,,,,2024-04-05_16h41.55.092,V_1_memo_end,2023.2.3,119.48621167876702,2024-04-05 16h42.07.553099 +0200,
stimuli/img_xtizs.jpg,j,0,0,0,1,0,0,1,categorization,4,1,21,105,bedroom,kitchen,distractor,47.8387096774194,27.8064516129032,31,37.8225806451613,76,low,,,,,,,,,0,3,3,3,,,,,,,,,,,,,,,,,0,20,20,20,,,,,,,,,,,,,367.5739677999991,,,,,,,,,,,,,,,,,,,,,,,,,369.4957452960007,j,1,0.026496574999328004,None,,,,,,,,1,,,,2024-04-05_16h41.55.092,V_1_memo_end,2023.2.3,119.48621167876702,2024-04-05 16h42.07.553099 +0200,
stimuli/img_b2jli.jpg,f,0,0,0,1,0,0,1,categorization,4,1,22,106,bedroom,bedroom,target,80.5909090909091,64.0909090909091,22,72.3409090909091,367,high,,,,,,,,,0,3,3,3,,,,,,,,,,,,,,,,,0,21,21,21,,,,,,,,,,,,,369.8827110509992,,,,,,,,,,,,,,,,,,,,,,,,,371.1609446580005,j,0,0.2137217560011777,None,,,,,,,,1,,,,2024-04-05_16h41.55.092,V_1_memo_end,2023.2.3,119.48621167876702,2024-04-05 16h42.07.553099 +0200,
stimuli/img_m7i17.jpg,f,0,0,0,1,0,0,1,categorization,4,1,23,107,bedroom,bedroom,target,44.8965517241379,29.2413793103448,29,37.0689655172414,74,low,,,,,,,,,0,3,3,3,,,,,,,,,,,,,,,,,0,22,22,22,,,,,,,,,,,,,371.7423526189996,,,,,,,,,,,,,,,,,,,,,,,,,373.3652197090014,j,0,0.041424861999985296,None,,,,,,,,1,,,,2024-04-05_16h41.55.092,V_1_memo_end,2023.2.3,119.48621167876702,2024-04-05 16h42.07.553099 +0200,
stimuli/img_sgt5b.jpg,f,0,0,0,1,0,0,1,categorization,4,1,24,108,bedroom,bedroom,target,90.0434782608696,80.4347826086957,23,85.2391304347826,497,high,,,,,,,,,0,3,3,3,,,,,,,,,,,,,,,,,0,23,23,23,,,,,,,,,,,,,373.7749389230012,,,,,,,,,,,,,,,,,,,,,,,,,375.0877657960009,j,0,0.09279187300126068,None,,,,,,,,1,,,,2024-04-05_16h41.55.092,V_1_memo_end,2023.2.3,119.48621167876702,2024-04-05 16h42.07.553099 +0200,
stimuli/img_kwbzo.jpg,j,0,0,0,1,0,0,1,categorization,4,1,25,109,bedroom,kitchen,distractor,91.1071428571429,67.3928571428571,28,79.25,708,high,,,,,,,,,0,3,3,3,,,,,,,,,,,,,,,,,0,24,24,24,,,,,,,,,,,,,375.55331538799874,,,,,,,,,,,,,,,,,,,,,,,,,377.29076336100115,j,1,0.06529120699997293,None,,,,,,,,1,,,,2024-04-05_16h41.55.092,V_1_memo_end,2023.2.3,119.48621167876702,2024-04-05 16h42.07.553099 +0200,
stimuli/img_d3t0o.jpg,f,0,0,0,1,0,0,1,categorization,4,1,26,110,bedroom,bedroom,target,68.5555555555556,43.1666666666667,36,55.8611111111111,178,low,,,,,,,,,0,3,3,3,,,,,,,,,,,,,,,,,0,25,25,25,,,,,,,,,,,,,377.7266685860013,,,,,,,,,,,,,,,,,,,,,,,,,379.7243663139998,j,0,0.07800534700072603,None,,,,,,,,1,,,,2024-04-05_16h41.55.092,V_1_memo_end,2023.2.3,119.48621167876702,2024-04-05 16h42.07.553099 +0200,
stimuli/img_88mrj.jpg,f,0,0,0,1,0,0,1,categorization,4,1,27,111,bedroom,bedroom,target,85.7777777777778,60.3703703703704,27,73.0740740740741,376,high,,,,,,,,,0,3,3,3,,,,,,,,,,,,,,,,,0,26,26,26,,,,,,,,,,,,,380.17106286499984,,,,,,,,,,,,,,,,,,,,,,,,,382.01106287600123,j,0,0.10755421800058684,None,,,,,,,,1,,,,2024-04-05_16h41.55.092,V_1_memo_end,2023.2.3,119.48621167876702,2024-04-05 16h42.07.553099 +0200,
stimuli/img_5949k.jpg,j,0,0,0,1,0,0,1,categorization,4,1,28,112,bedroom,kitchen,distractor,60.304347826087,39.4347826086956,23,49.8695652173913,192,low,,,,,,,,,0,3,3,3,,,,,,,,,,,,,,,,,0,27,27,27,,,,,,,,,,,,,382.48362632000135,,,,,,,,,,,,,,,,,,,,,,,,,384.35713495000164,j,1,0.3735045520006679,None,,,,,,,,1,,,,2024-04-05_16h41.55.092,V_1_memo_end,2023.2.3,119.48621167876702,2024-04-05 16h42.07.553099 +0200,
,,0,0,0,1,0,0,,,,,,,,,,,,,,,,,,,,,,,,0,3,3,3,,,,,,,,,,,,,,,,,,,,,,,,,,,,,,,,,,,,,,,,,,,,,,,,,,,,,,,,,,,,,,,,,,,,,,1,,,,2024-04-05_16h41.55.092,V_1_memo_end,2023.2.3,119.48621167876702,2024-04-05 16h42.07.553099 +0200,
stimuli/img_gbypq.jpg,j,0,0,0,0,1,0,1,categorization,5,2,1,113,kitchen,bedroom,distractor,76.4411764705882,54.5,34,65.4705882352941,278,high,,,,,,,,,0,4,4,4,,,,,0,0,0,0,,,,,,,,,,,,,,,,,,,,,,,,,385.16588085400144,,,,,,,,,,,,,,,,387.9970193049994,j,1,0.014257628998166183,None,,,,,,,,,,,,,,,,,1,,,,2024-04-05_16h41.55.092,V_1_memo_end,2023.2.3,119.48621167876702,2024-04-05 16h42.07.553099 +0200,
stimuli/img_wn462.jpg,f,0,0,0,0,1,0,1,categorization,5,2,2,114,kitchen,kitchen,target,82.6857142857143,66.6285714285714,35,74.6571428571429,653,high,,,,,,,,,0,4,4,4,,,,,0,1,1,1,,,,,,,,,,,,,,,,,,,,,,,,,388.3647684159987,,,,,,,,,,,,,,,,389.42259186199954,j,0,0.22579389300153707,None,,,,,,,,,,,,,,,,,1,,,,2024-04-05_16h41.55.092,V_1_memo_end,2023.2.3,119.48621167876702,2024-04-05 16h42.07.553099 +0200,
stimuli/img_v455z.jpg,f,0,0,0,0,1,0,1,categorization,5,2,3,115,kitchen,kitchen,target,54.08,35.68,25,44.88,132,low,,,,,,,,,0,4,4,4,,,,,0,2,2,2,,,,,,,,,,,,,,,,,,,,,,,,,390.01666524699976,,,,,,,,,,,,,,,,391.3178396250005,j,0,0.1251569570013089,None,,,,,,,,,,,,,,,,,1,,,,2024-04-05_16h41.55.092,V_1_memo_end,2023.2.3,119.48621167876702,2024-04-05 16h42.07.553099 +0200,
stimuli/img_n5ohn.jpg,f,0,0,0,0,1,0,1,categorization,5,2,4,116,kitchen,kitchen,target,30.3461538461539,16.7307692307692,26,23.5384615384615,30,low,,,,,,,,,0,4,4,4,,,,,0,3,3,3,,,,,,,,,,,,,,,,,,,,,,,,,391.7963786879991,,,,,,,,,,,,,,,,393.40390359199955,j,0,0.02931544899911387,None,,,,,,,,,,,,,,,,,1,,,,2024-04-05_16h41.55.092,V_1_memo_end,2023.2.3,119.48621167876702,2024-04-05 16h42.07.553099 +0200,
stimuli/img_eiu3c.jpg,j,0,0,0,0,1,0,1,categorization,5,2,5,117,kitchen,living_room,distractor,65.9411764705882,45.0294117647059,34,55.4852941176471,134,low,,,,,,,,,0,4,4,4,,,,,0,4,4,4,,,,,,,,,,,,,,,,,,,,,,,,,393.8094285929983,,,,,,,,,,,,,,,,395.80956943899946,j,1,0.408306249002635,None,,,,,,,,,,,,,,,,,1,,,,2024-04-05_16h41.55.092,V_1_memo_end,2023.2.3,119.48621167876702,2024-04-05 16h42.07.553099 +0200,
stimuli/img_lgxzn.jpg,j,0,0,0,0,1,0,1,categorization,5,2,6,118,kitchen,living_room,distractor,73.2727272727273,47,33,60.1363636363636,152,high,,,,,,,,,0,4,4,4,,,,,0,5,5,5,,,,,,,,,,,,,,,,,,,,,,,,,396.64607852799963,,,,,,,,,,,,,,,,398.5727767339995,j,1,0.048054415001388406,None,,,,,,,,,,,,,,,,,1,,,,2024-04-05_16h41.55.092,V_1_memo_end,2023.2.3,119.48621167876702,2024-04-05 16h42.07.553099 +0200,
stimuli/img_1cm9s.jpg,f,0,0,0,0,1,0,1,categorization,5,2,7,119,kitchen,kitchen,target,51.3888888888889,30.8333333333333,36,41.1111111111111,95,low,,,,,,,,,0,4,4,4,,,,,0,6,6,6,,,,,,,,,,,,,,,,,,,,,,,,,398.9914994409992,,,,,,,,,,,,,,,,400.9294848669997,j,0,0.1081146059987077,None,,,,,,,,,,,,,,,,,1,,,,2024-04-05_16h41.55.092,V_1_memo_end,2023.2.3,119.48621167876702,2024-04-05 16h42.07.553099 +0200,
stimuli/img_uwv6y.jpg,f,0,0,0,0,1,0,1,categorization,5,2,8,120,kitchen,kitchen,target,79.8333333333333,61.5833333333333,24,70.7083333333333,567,high,,,,,,,,,0,4,4,4,,,,,0,7,7,7,,,,,,,,,,,,,,,,,,,,,,,,,401.39915525700053,,,,,,,,,,,,,,,,402.6755327999999,j,0,0.14521676000003936,None,,,,,,,,,,,,,,,,,1,,,,2024-04-05_16h41.55.092,V_1_memo_end,2023.2.3,119.48621167876702,2024-04-05 16h42.07.553099 +0200,
stimuli/img_9dg1v.jpg,f,0,0,0,0,1,0,1,categorization,5,2,9,121,kitchen,kitchen,target,82.1025641025641,70.0512820512821,39,76.0769230769231,672,high,,,,,,,,,0,4,4,4,,,,,0,8,8,8,,,,,,,,,,,,,,,,,,,,,,,,,403.184194821999,,,,,,,,,,,,,,,,404.4828449589986,j,0,0.14259442199909245,None,,,,,,,,,,,,,,,,,1,,,,2024-04-05_16h41.55.092,V_1_memo_end,2023.2.3,119.48621167876702,2024-04-05 16h42.07.553099 +0200,
stimuli/img_5e7iu.jpg,f,0,0,0,0,1,0,1,categorization,5,2,10,122,kitchen,kitchen,target,83.0769230769231,65.1923076923077,26,74.1346153846154,639,high,,,,,,,,,0,4,4,4,,,,,0,9,9,9,,,,,,,,,,,,,,,,,,,,,,,,,404.9903668810002,,,,,,,,,,,,,,,,406.34082359400054,j,0,0.12512251299995114,None,,,,,,,,,,,,,,,,,1,,,,2024-04-05_16h41.55.092,V_1_memo_end,2023.2.3,119.48621167876702,2024-04-05 16h42.07.553099 +0200,
stimuli/img_ac0ey.jpg,j,0,0,0,0,1,0,1,categorization,5,2,11,123,kitchen,living_room,distractor,86.6388888888889,67.9722222222222,36,77.3055555555556,253,high,,,,,,,,,0,4,4,4,,,,,0,10,10,10,,,,,,,,,,,,,,,,,,,,,,,,,406.82642503399984,,,,,,,,,,,,,,,,408.7377980259989,j,1,0.3767639079997025,None,,,,,,,,,,,,,,,,,1,,,,2024-04-05_16h41.55.092,V_1_memo_end,2023.2.3,119.48621167876702,2024-04-05 16h42.07.553099 +0200,
stimuli/img_badai.jpg,j,0,0,0,0,1,0,1,categorization,5,2,12,124,kitchen,bedroom,distractor,66.2571428571429,44.6285714285714,35,55.4428571428571,172,low,,,,,,,,,0,4,4,4,,,,,0,11,11,11,,,,,,,,,,,,,,,,,,,,,,,,,409.492123136999,,,,,,,,,,,,,,,,410.79385868100144,j,1,0.06300919800196425,None,,,,,,,,,,,,,,,,,1,,,,2024-04-05_16h41.55.092,V_1_memo_end,2023.2.3,119.48621167876702,2024-04-05 16h42.07.553099 +0200,
stimuli/img_2ygqr.jpg,f,0,0,0,0,1,0,1,categorization,5,2,13,125,kitchen,kitchen,target,87.030303030303,53.5757575757576,33,70.3030303030303,558,high,,,,,,,,,0,4,4,4,,,,,0,12,12,12,,,,,,,,,,,,,,,,,,,,,,,,,411.2214519820009,,,,,,,,,,,,,,,,413.02341083400097,j,0,0.11135490400192793,None,,,,,,,,,,,,,,,,,1,,,,2024-04-05_16h41.55.092,V_1_memo_end,2023.2.3,119.48621167876702,2024-04-05 16h42.07.553099 +0200,
stimuli/img_4lyad.jpg,f,0,0,0,0,1,0,1,categorization,5,2,14,126,kitchen,kitchen,target,60.6470588235294,45.3823529411765,34,53.0147058823529,220,low,,,,,,,,,0,4,4,4,,,,,0,13,13,13,,,,,,,,,,,,,,,,,,,,,,,,,413.50278341599915,,,,,,,,,,,,,,,,415.2233128150001,j,0,0.03601402300046175,None,,,,,,,,,,,,,,,,,1,,,,2024-04-05_16h41.55.092,V_1_memo_end,2023.2.3,119.48621167876702,2024-04-05 16h42.07.553099 +0200,
stimuli/img_uc67x.jpg,f,0,0,0,0,1,0,1,categorization,5,2,15,127,kitchen,kitchen,target,68.125,57.0833333333333,24,62.6041666666667,389,high,,,,,,,,,0,4,4,4,,,,,0,14,14,14,,,,,,,,,,,,,,,,,,,,,,,,,415.6326839680005,,,,,,,,,,,,,,,,417.34639160699953,j,0,0.08046891800040612,None,,,,,,,,,,,,,,,,,1,,,,2024-04-05_16h41.55.092,V_1_memo_end,2023.2.3,119.48621167876702,2024-04-05 16h42.07.553099 +0200,
stimuli/img_jzjqz.jpg,f,0,0,0,0,1,0,1,categorization,5,2,16,128,kitchen,kitchen,target,86.6764705882353,67.3823529411765,34,77.0294117647059,686,high,,,,,,,,,0,4,4,4,,,,,0,15,15,15,,,,,,,,,,,,,,,,,,,,,,,,,417.7911105079984,,,,,,,,,,,,,,,,418.92904534400077,j,0,0.25274817300305585,None,,,,,,,,,,,,,,,,,1,,,,2024-04-05_16h41.55.092,V_1_memo_end,2023.2.3,119.48621167876702,2024-04-05 16h42.07.553099 +0200,
stimuli/img_uq6e0.jpg,f,0,0,0,0,1,0,1,categorization,5,2,17,129,kitchen,kitchen,target,65.72,53.48,25,59.6,319,low,,,,,,,,,0,4,4,4,,,,,0,16,16,16,,,,,,,,,,,,,,,,,,,,,,,,,419.544128010999,,,,,,,,,,,,,,,,421.112865744999,j,0,0.1014723039988894,None,,,,,,,,,,,,,,,,,1,,,,2024-04-05_16h41.55.092,V_1_memo_end,2023.2.3,119.48621167876702,2024-04-05 16h42.07.553099 +0200,
stimuli/img_yju0d.jpg,j,0,0,0,0,1,0,1,categorization,5,2,18,130,kitchen,bedroom,distractor,83.0689655172414,68.4827586206897,29,75.7758620689655,403,high,,,,,,,,,0,4,4,4,,,,,0,17,17,17,,,,,,,,,,,,,,,,,,,,,,,,,421.58338795700183,,,,,,,,,,,,,,,,422.8864968029993,j,1,0.10120569100035937,None,,,,,,,,,,,,,,,,,1,,,,2024-04-05_16h41.55.092,V_1_memo_end,2023.2.3,119.48621167876702,2024-04-05 16h42.07.553099 +0200,
stimuli/img_moplo.jpg,f,0,0,0,0,1,0,1,categorization,5,2,19,131,kitchen,kitchen,target,86.7333333333333,72.1333333333333,30,79.4333333333333,712,high,,,,,,,,,0,4,4,4,,,,,0,18,18,18,,,,,,,,,,,,,,,,,,,,,,,,,423.35003433100064,,,,,,,,,,,,,,,,424.66506915300124,j,0,0.04556574099842692,None,,,,,,,,,,,,,,,,,1,,,,2024-04-05_16h41.55.092,V_1_memo_end,2023.2.3,119.48621167876702,2024-04-05 16h42.07.553099 +0200,
stimuli/img_9mcah.jpg,f,0,0,0,0,1,0,1,categorization,5,2,20,132,kitchen,kitchen,target,59.59375,36.75,32,48.171875,174,low,,,,,,,,,0,4,4,4,,,,,0,19,19,19,,,,,,,,,,,,,,,,,,,,,,,,,425.08081986400066,,,,,,,,,,,,,,,,426.6506837779998,j,0,0.34247280300041893,None,,,,,,,,,,,,,,,,,1,,,,2024-04-05_16h41.55.092,V_1_memo_end,2023.2.3,119.48621167876702,2024-04-05 16h42.07.553099 +0200,
stimuli/img_iyxnj.jpg,f,0,0,0,0,1,0,1,categorization,5,2,21,133,kitchen,kitchen,target,72.9130434782609,52.6521739130435,23,62.7826086956522,391,high,,,,,,,,,0,4,4,4,,,,,0,20,20,20,,,,,,,,,,,,,,,,,,,,,,,,,427.35155968699837,,,,,,,,,,,,,,,,428.5975850579998,j,0,0.050225736002175836,None,,,,,,,,,,,,,,,,,1,,,,2024-04-05_16h41.55.092,V_1_memo_end,2023.2.3,119.48621167876702,2024-04-05 16h42.07.553099 +0200,
stimuli/img_tw371.jpg,f,0,0,0,0,1,0,1,categorization,5,2,22,134,kitchen,kitchen,target,85.390243902439,55.2439024390244,41,70.3170731707317,559,high,,,,,,,,,0,4,4,4,,,,,0,21,21,21,,,,,,,,,,,,,,,,,,,,,,,,,429.00409430700165,,,,,,,,,,,,,,,,430.34432469199965,j,0,0.09000401299999794,None,,,,,,,,,,,,,,,,,1,,,,2024-04-05_16h41.55.092,V_1_memo_end,2023.2.3,119.48621167876702,2024-04-05 16h42.07.553099 +0200,
stimuli/img_7i6d8.jpg,f,0,0,0,0,1,0,1,categorization,5,2,23,135,kitchen,kitchen,target,77.9354838709677,48.3870967741936,31,63.1612903225806,399,high,,,,,,,,,0,4,4,4,,,,,0,22,22,22,,,,,,,,,,,,,,,,,,,,,,,,,430.80457921700145,,,,,,,,,,,,,,,,432.6184745489991,j,0,0.35022526399916387,None,,,,,,,,,,,,,,,,,1,,,,2024-04-05_16h41.55.092,V_1_memo_end,2023.2.3,119.48621167876702,2024-04-05 16h42.07.553099 +0200,
stimuli/img_ulgl4.jpg,f,0,0,0,0,1,0,1,categorization,5,2,24,136,kitchen,kitchen,target,79.15625,68.59375,32,73.875,628,high,,,,,,,,,0,4,4,4,,,,,0,23,23,23,,,,,,,,,,,,,,,,,,,,,,,,,433.3258271800005,,,,,,,,,,,,,,,,434.77609787300025,j,0,0.3769970840003225,None,,,,,,,,,,,,,,,,,1,,,,2024-04-05_16h41.55.092,V_1_memo_end,2023.2.3,119.48621167876702,2024-04-05 16h42.07.553099 +0200,
stimuli/img_syyee.jpg,j,0,0,0,0,1,0,1,categorization,5,2,25,137,kitchen,bedroom,distractor,68.6774193548387,33.4516129032258,31,51.0645161290323,141,low,,,,,,,,,0,4,4,4,,,,,0,24,24,24,,,,,,,,,,,,,,,,,,,,,,,,,435.5073196310004,,,,,,,,,,,,,,,,437.37383877400134,j,1,0.3256901579989062,None,,,,,,,,,,,,,,,,,1,,,,2024-04-05_16h41.55.092,V_1_memo_end,2023.2.3,119.48621167876702,2024-04-05 16h42.07.553099 +0200,
stimuli/img_pi7sb.jpg,f,0,0,0,0,1,0,1,categorization,5,2,26,138,kitchen,kitchen,target,75.3076923076923,55.2051282051282,39,65.2564102564102,447,high,,,,,,,,,0,4,4,4,,,,,0,25,25,25,,,,,,,,,,,,,,,,,,,,,,,,,438.0709400119995,,,,,,,,,,,,,,,,439.65225667699997,j,0,0.3034786530006386,None,,,,,,,,,,,,,,,,,1,,,,2024-04-05_16h41.55.092,V_1_memo_end,2023.2.3,119.48621167876702,2024-04-05 16h42.07.553099 +0200,
stimuli/img_kweju.jpg,f,0,0,0,0,1,0,1,categorization,5,2,27,139,kitchen,kitchen,target,82.5555555555556,51.6296296296296,27,67.0925925925926,487,high,,,,,,,,,0,4,4,4,,,,,0,26,26,26,,,,,,,,,,,,,,,,,,,,,,,,,440.3426230360019,,,,,,,,,,,,,,,,441.8811423719999,j,0,0.22694126100032008,None,,,,,,,,,,,,,,,,,1,,,,2024-04-05_16h41.55.092,V_1_memo_end,2023.2.3,119.48621167876702,2024-04-05 16h42.07.553099 +0200,
stimuli/img_mdso0.jpg,f,0,0,0,0,1,0,1,categorization,5,2,28,140,kitchen,kitchen,target,69.5185185185185,38.1111111111111,27,53.8148148148148,238,low,,,,,,,,,0,4,4,4,,,,,0,27,27,27,,,,,,,,,,,,,,,,,,,,,,,,,442.4782771040009,,,,,,,,,,,,,,,,443.59198379499867,j,0,0.19121254700075951,None,,,,,,,,,,,,,,,,,1,,,,2024-04-05_16h41.55.092,V_1_memo_end,2023.2.3,119.48621167876702,2024-04-05 16h42.07.553099 +0200,
,,0,0,0,0,1,0,,,,,,,,,,,,,,,,,,,,,,,,0,4,4,4,,,,,,,,,,,,,,,,,,,,,,,,,,,,,,,,,,,,,,,,,,,,,,,,,,,,,,,,,,,,,,,,,,,,,,1,,,,2024-04-05_16h41.55.092,V_1_memo_end,2023.2.3,119.48621167876702,2024-04-05 16h42.07.553099 +0200,
stimuli/img_vnxft.jpg,j,0,0,0,0,0,1,1,categorization,6,2,7,147,bedroom,living_room,distractor,51.421052631579,34.3947368421053,38,42.9078947368421,78,low,,,,,,,,,0,5,5,5,,,,,,,,,,,,,,,,,,,,,0,0,0,6,,,,,,,,,444.3863215730016,,,,,,,,,,,,,,,,,,,,,,,,,447.3977630650006,j,1,0.02866951700343634,None,444.63377860699984,444.63377860699984,,,,,,1,,,,2024-04-05_16h41.55.092,V_1_memo_end,2023.2.3,119.48621167876702,2024-04-05 16h42.07.553099 +0200,
stimuli/img_tseae.jpg,j,0,0,0,0,0,1,1,categorization,6,2,23,163,bedroom,living_room,distractor,87.0909090909091,69.8787878787879,33,78.4848484848485,263,high,,,,,,,,,0,5,5,5,,,,,,,,,,,,,,,,,,,,,0,1,1,22,,,,,,,,,447.7921878749985,,,,,,,,,,,,,,,,,,,,,,,,,449.2454220549989,j,1,0.04154927399940789,None,,,,,,,,1,,,,2024-04-05_16h41.55.092,V_1_memo_end,2023.2.3,119.48621167876702,2024-04-05 16h42.07.553099 +0200,
stimuli/img_owbre.jpg,j,0,0,0,0,0,1,1,categorization,6,2,26,166,bedroom,living_room,distractor,68.3684210526316,33.2894736842105,38,50.8289473684211,111,low,,,,,,,,,0,5,5,5,,,,,,,,,,,,,,,,,,,,,0,2,2,25,,,,,,,,,449.6605952659993,,,,,,,,,,,,,,,,,,,,,,,,,451.4145578659991,j,1,0.3759340830001747,None,,,,,,,,1,,,,2024-04-05_16h41.55.092,V_1_memo_end,2023.2.3,119.48621167876702,2024-04-05 16h42.07.553099 +0200,
stimuli/img_egzbl.jpg,f,0,0,0,0,0,1,1,categorization,6,2,15,155,bedroom,bedroom,target,89.0294117647059,72.4705882352941,34,80.75,456,high,,,,,,,,,0,5,5,5,,,,,,,,,,,,,,,,,,,,,0,3,3,14,,,,,,,,,452.1632764060014,,,,,,,,,,,,,,,,,,,,,,,,,454.006100994,j,0,0.3357723619992612,None,,,,,,,,1,,,,2024-04-05_16h41.55.092,V_1_memo_end,2023.2.3,119.48621167876702,2024-04-05 16h42.07.553099 +0200,
stimuli/img_6cg5g.jpg,f,0,0,0,0,0,1,1,categorization,6,2,6,146,bedroom,bedroom,target,67.7037037037037,29.6296296296296,27,48.6666666666667,122,low,,,,,,,,,0,5,5,5,,,,,,,,,,,,,,,,,,,,,0,4,4,5,,,,,,,,,454.7108149859996,,,,,,,,,,,,,,,,,,,,,,,,,455.8711601870018,j,0,0.20208380500116618,None,,,,,,,,1,,,,2024-04-05_16h41.55.092,V_1_memo_end,2023.2.3,119.48621167876702,2024-04-05 16h42.07.553099 +0200,
stimuli/img_5vc3c.jpg,f,0,0,0,0,0,1,1,categorization,6,2,24,164,bedroom,bedroom,target,80.5185185185185,49.0740740740741,27,64.7962962962963,265,high,,,,,,,,,0,5,5,5,,,,,,,,,,,,,,,,,,,,,0,5,5,23,,,,,,,,,456.42498051499933,,,,,,,,,,,,,,,,,,,,,,,,,458.3858755200017,j,0,0.18269126499944832,None,,,,,,,,1,,,,2024-04-05_16h41.55.092,V_1_memo_end,2023.2.3,119.48621167876702,2024-04-05 16h42.07.553099 +0200,
stimuli/img_vgh2g.jpg,j,0,0,0,0,0,1,1,categorization,6,2,12,152,bedroom,living_room,distractor,93.6410256410256,77.8205128205128,39,85.7307692307692,291,high,,,,,,,,,0,5,5,5,,,,,,,,,,,,,,,,,,,,,0,6,6,11,,,,,,,,,458.9247325590004,,,,,,,,,,,,,,,,,,,,,,,,,460.33748556000137,j,1,0.09571014999892213,None,,,,,,,,1,,,,2024-04-05_16h41.55.092,V_1_memo_end,2023.2.3,119.48621167876702,2024-04-05 16h42.07.553099 +0200,
stimuli/img_z3yzz.jpg,f,0,0,0,0,0,1,1,categorization,6,2,3,143,bedroom,bedroom,target,68.4137931034483,47.9655172413793,29,58.1896551724138,198,low,,,,,,,,,0,5,5,5,,,,,,,,,,,,,,,,,,,,,0,7,7,2,,,,,,,,,460.80184357500184,,,,,,,,,,,,,,,,,,,,,,,,,462.7361265489999,j,0,0.24867318000178784,None,,,,,,,,1,,,,2024-04-05_16h41.55.092,V_1_memo_end,2023.2.3,119.48621167876702,2024-04-05 16h42.07.553099 +0200,
stimuli/img_rvssl.jpg,f,0,0,0,0,0,1,1,categorization,6,2,17,157,bedroom,bedroom,target,77.5555555555556,56.1481481481482,27,66.8518518518518,301,high,,,,,,,,,0,5,5,5,,,,,,,,,,,,,,,,,,,,,0,8,8,16,,,,,,,,,463.3576486109996,,,,,,,,,,,,,,,,,,,,,,,,,465.3027515120011,j,0,0.12361239900201326,None,,,,,,,,1,,,,2024-04-05_16h41.55.092,V_1_memo_end,2023.2.3,119.48621167876702,2024-04-05 16h42.07.553099 +0200,
stimuli/img_kezv3.jpg,j,0,0,0,0,0,1,1,categorization,6,2,27,167,bedroom,kitchen,distractor,73.3333333333333,57.8148148148148,27,65.5740740740741,454,high,,,,,,,,,0,5,5,5,,,,,,,,,,,,,,,,,,,,,0,9,9,26,,,,,,,,,465.79766195900083,,,,,,,,,,,,,,,,,,,,,,,,,466.8685138799992,j,1,0.21067184600178734,None,,,,,,,,1,,,,2024-04-05_16h41.55.092,V_1_memo_end,2023.2.3,119.48621167876702,2024-04-05 16h42.07.553099 +0200,
stimuli/img_ejwww.jpg,j,0,0,0,0,0,1,1,categorization,6,2,8,148,bedroom,kitchen,distractor,77.4838709677419,53.8387096774194,31,65.6612903225806,457,high,,,,,,,,,0,5,5,5,,,,,,,,,,,,,,,,,,,,,0,10,10,7,,,,,,,,,467.44644017300016,,,,,,,,,,,,,,,,,,,,,,,,,469.3522478769992,j,1,0.33580231099767843,None,,,,,,,,1,,,,2024-04-05_16h41.55.092,V_1_memo_end,2023.2.3,119.48621167876702,2024-04-05 16h42.07.553099 +0200,
stimuli/img_5fkbp.jpg,f,0,0,0,0,0,1,1,categorization,6,2,21,161,bedroom,bedroom,target,66.0625,47.875,32,56.96875,189,low,,,,,,,,,0,5,5,5,,,,,,,,,,,,,,,,,,,,,0,11,11,20,,,,,,,,,470.0473770790013,,,,,,,,,,,,,,,,,,,,,,,,,471.44562058099837,j,0,0.11164246199768968,None,,,,,,,,1,,,,2024-04-05_16h41.55.092,V_1_memo_end,2023.2.3,119.48621167876702,2024-04-05 16h42.07.553099 +0200,
stimuli/img_c4vkt.jpg,f,0,0,0,0,0,1,1,categorization,6,2,13,153,bedroom,bedroom,target,67.7,52.4666666666667,30,60.0833333333333,217,low,,,,,,,,,0,5,5,5,,,,,,,,,,,,,,,,,,,,,0,12,12,12,,,,,,,,,471.93305045500165,,,,,,,,,,,,,,,,,,,,,,,,,473.1011396729991,j,0,0.042335884001659,None,,,,,,,,1,,,,2024-04-05_16h41.55.092,V_1_memo_end,2023.2.3,119.48621167876702,2024-04-05 16h42.07.553099 +0200,
stimuli/img_9pfbj.jpg,f,0,0,0,0,0,1,1,categorization,6,2,25,165,bedroom,bedroom,target,91.4,81.08,25,86.24,498,high,,,,,,,,,0,5,5,5,,,,,,,,,,,,,,,,,,,,,0,13,13,24,,,,,,,,,473.5126131090001,,,,,,,,,,,,,,,,,,,,,,,,,474.9483886829985,j,0,0.15381314499973087,None,,,,,,,,1,,,,2024-04-05_16h41.55.092,V_1_memo_end,2023.2.3,119.48621167876702,2024-04-05 16h42.07.553099 +0200,
stimuli/img_bs3m7.jpg,f,0,0,0,0,0,1,1,categorization,6,2,5,145,bedroom,bedroom,target,78.4642857142857,64.7142857142857,28,71.5892857142857,356,high,,,,,,,,,0,5,5,5,,,,,,,,,,,,,,,,,,,,,0,14,14,4,,,,,,,,,475.4705765969993,,,,,,,,,,,,,,,,,,,,,,,,,476.9058269189991,j,0,0.009861320999334566,None,,,,,,,,1,,,,2024-04-05_16h41.55.092,V_1_memo_end,2023.2.3,119.48621167876702,2024-04-05 16h42.07.553099 +0200,
stimuli/img_izuw9.jpg,f,0,0,0,0,0,1,1,categorization,6,2,10,150,bedroom,bedroom,target,59.8157894736842,41.2105263157895,38,50.5131578947368,137,low,,,,,,,,,0,5,5,5,,,,,,,,,,,,,,,,,,,,,0,15,15,9,,,,,,,,,477.27434615699894,,,,,,,,,,,,,,,,,,,,,,,,,478.597200092001,j,0,0.02752609899835079,None,,,,,,,,1,,,,2024-04-05_16h41.55.092,V_1_memo_end,2023.2.3,119.48621167876702,2024-04-05 16h42.07.553099 +0200,
stimuli/img_makxc.jpg,f,0,0,0,0,0,1,1,categorization,6,2,4,144,bedroom,bedroom,target,5.78125,5.875,32,5.828125,2,low,,,,,,,,,0,5,5,5,,,,,,,,,,,,,,,,,,,,,0,16,16,3,,,,,,,,,478.976775561001,,,,,,,,,,,,,,,,,,,,,,,,,480.8478530860011,j,0,0.2824241010021069,None,,,,,,,,1,,,,2024-04-05_16h41.55.092,V_1_memo_end,2023.2.3,119.48621167876702,2024-04-05 16h42.07.553099 +0200,
stimuli/img_4kzor.jpg,f,0,0,0,0,0,1,1,categorization,6,2,9,149,bedroom,bedroom,target,85.9375,70.28125,32,78.109375,429,high,,,,,,,,,0,5,5,5,,,,,,,,,,,,,,,,,,,,,0,17,17,8,,,,,,,,,481.5015828809992,,,,,,,,,,,,,,,,,,,,,,,,,483.42933647500104,j,0,0.24445666400060873,None,,,,,,,,1,,,,2024-04-05_16h41.55.092,V_1_memo_end,2023.2.3,119.48621167876702,2024-04-05 16h42.07.553099 +0200,
stimuli/img_hdt5e.jpg,f,0,0,0,0,0,1,1,categorization,6,2,11,151,bedroom,bedroom,target,77.76,64.64,25,71.2,351,high,,,,,,,,,0,5,5,5,,,,,,,,,,,,,,,,,,,,,0,18,18,10,,,,,,,,,484.0250002690009,,,,,,,,,,,,,,,,,,,,,,,,,485.1994404830002,j,0,0.15662096699816175,None,,,,,,,,1,,,,2024-04-05_16h41.55.092,V_1_memo_end,2023.2.3,119.48621167876702,2024-04-05 16h42.07.553099 +0200,
stimuli/img_4utvc.jpg,f,0,0,0,0,0,1,1,categorization,6,2,1,141,bedroom,bedroom,target,84.2285714285714,59.2,35,71.7142857142857,359,high,,,,,,,,,0,5,5,5,,,,,,,,,,,,,,,,,,,,,0,19,19,0,,,,,,,,,485.71913971899994,,,,,,,,,,,,,,,,,,,,,,,,,486.83085540200045,j,0,0.19722402399929706,None,,,,,,,,1,,,,2024-04-05_16h41.55.092,V_1_memo_end,2023.2.3,119.48621167876702,2024-04-05 16h42.07.553099 +0200,
stimuli/img_s2adu.jpg,f,0,0,0,0,0,1,1,categorization,6,2,18,158,bedroom,bedroom,target,89.1515151515152,72.030303030303,33,80.5909090909091,455,high,,,,,,,,,0,5,5,5,,,,,,,,,,,,,,,,,,,,,0,20,20,17,,,,,,,,,487.40164509999886,,,,,,,,,,,,,,,,,,,,,,,,,489.3149034429989,j,0,0.05596843700186582,None,,,,,,,,1,,,,2024-04-05_16h41.55.092,V_1_memo_end,2023.2.3,119.48621167876702,2024-04-05 16h42.07.553099 +0200,
stimuli/img_kzh5g.jpg,f,0,0,0,0,0,1,1,categorization,6,2,16,156,bedroom,bedroom,target,79.1034482758621,53.0689655172414,29,66.0862068965517,285,high,,,,,,,,,0,5,5,5,,,,,,,,,,,,,,,,,,,,,0,21,21,15,,,,,,,,,489.7357795530006,,,,,,,,,,,,,,,,,,,,,,,,,491.3455480340017,j,0,0.07715625099808676,None,,,,,,,,1,,,,2024-04-05_16h41.55.092,V_1_memo_end,2023.2.3,119.48621167876702,2024-04-05 16h42.07.553099 +0200,
stimuli/img_arx94.jpg,j,0,0,0,0,0,1,1,categorization,6,2,28,168,bedroom,kitchen,distractor,24.5862068965517,8.03448275862069,29,16.3103448275862,16,low,,,,,,,,,0,5,5,5,,,,,,,,,,,,,,,,,,,,,0,22,22,27,,,,,,,,,491.7788913180011,,,,,,,,,,,,,,,,,,,,,,,,,493.78772822500105,j,1,0.12876681000125245,None,,,,,,,,1,,,,2024-04-05_16h41.55.092,V_1_memo_end,2023.2.3,119.48621167876702,2024-04-05 16h42.07.553099 +0200,
stimuli/img_35zbz.jpg,f,0,0,0,0,0,1,1,categorization,6,2,22,162,bedroom,bedroom,target,88.9677419354839,73.5806451612903,31,81.2741935483871,460,high,,,,,,,,,0,5,5,5,,,,,,,,,,,,,,,,,,,,,0,23,23,21,,,,,,,,,494.2667004130017,,,,,,,,,,,,,,,,,,,,,,,,,496.2592718730011,j,0,0.28415560299981735,None,,,,,,,,1,,,,2024-04-05_16h41.55.092,V_1_memo_end,2023.2.3,119.48621167876702,2024-04-05 16h42.07.553099 +0200,
stimuli/img_ydkv8.jpg,f,0,0,0,0,0,1,1,categorization,6,2,2,142,bedroom,bedroom,target,77.258064516129,62.1290322580645,31,69.6935483870968,335,high,,,,,,,,,0,5,5,5,,,,,,,,,,,,,,,,,,,,,0,24,24,1,,,,,,,,,496.90612170999884,,,,,,,,,,,,,,,,,,,,,,,,,498.0554210320006,j,0,0.14982810400033486,None,,,,,,,,1,,,,2024-04-05_16h41.55.092,V_1_memo_end,2023.2.3,119.48621167876702,2024-04-05 16h42.07.553099 +0200,
stimuli/img_c7bpx.jpg,f,0,0,0,0,0,1,1,categorization,6,2,20,160,bedroom,bedroom,target,74.8857142857143,55.8857142857143,35,65.3857142857143,276,high,,,,,,,,,0,5,5,5,,,,,,,,,,,,,,,,,,,,,0,25,25,19,,,,,,,,,498.57277415800127,,,,,,,,,,,,,,,,,,,,,,,,,500.56144148100066,j,0,0.1675318480010901,None,,,,,,,,1,,,,2024-04-05_16h41.55.092,V_1_memo_end,2023.2.3,119.48621167876702,2024-04-05 16h42.07.553099 +0200,
stimuli/img_3cp3s.jpg,f,0,0,0,0,0,1,1,categorization,6,2,14,154,bedroom,bedroom,target,77.1470588235294,53.1764705882353,34,65.1617647058823,273,high,,,,,,,,,0,5,5,5,,,,,,,,,,,,,,,,,,,,,0,26,26,13,,,,,,,,,501.09043138500056,,,,,,,,,,,,,,,,,,,,,,,,,502.759840409999,j,0,0.09773481100273784,None,,,,,,,,1,,,,2024-04-05_16h41.55.092,V_1_memo_end,2023.2.3,119.48621167876702,2024-04-05 16h42.07.553099 +0200,
stimuli/img_3wj63.jpg,f,0,0,0,0,0,1,1,categorization,6,2,19,159,bedroom,bedroom,target,13.1515151515152,5.39393939393939,33,9.27272727272727,4,low,,,,,,,,,0,5,5,5,,,,,,,,,,,,,,,,,,,,,0,27,27,18,,,,,,,,,503.2178575299986,,,,,,,,,,,,,,,,,,,,,,,,,504.4632027840016,j,0,0.14926416399976006,None,,,,,,,,1,,,,2024-04-05_16h41.55.092,V_1_memo_end,2023.2.3,119.48621167876702,2024-04-05 16h42.07.553099 +0200,
,,0,0,0,0,0,1,,,,,,,,,,,,,,,,,,,,,,,,0,5,5,5,,,,,,,,,,,,,,,,,,,,,,,,,,,,,,,,,,,,,,,,,,,,,,,,,,,,,,,,,,,,,,,,,,,,,,1,,,,2024-04-05_16h41.55.092,V_1_memo_end,2023.2.3,119.48621167876702,2024-04-05 16h42.07.553099 +0200,
stimuli/ihnbvcfgd.jpg,,,,,,,,,,,,,,,,,,,,,,,1,2,,,,,,,,,,,,,,,,,,,,,,,,,,,,,,,,,,,0,0,0,6,,,,,508.0555309779993,,,,,,,,,,,,,,,,,,,,,,,,,,,,,,,,sicher alt,0.8009072010027012,,,,1,,,,2024-04-05_16h41.55.092,V_1_memo_end,2023.2.3,119.48621167876702,2024-04-05 16h42.07.553099 +0200,
stimuli/sdfghjklkjbv.jpg,,,,,,,,,,,,,,,,,,,,,,,1,2,,,,,,,,,,,,,,,,,,,,,,,,,,,,,,,,,,,0,1,1,5,,,,,511.6291744500013,,,,,,,,,,,,,,,,,,,,,,,,,,,,,,,,sicher alt,0.5200593779991323,,,,1,,,,2024-04-05_16h41.55.092,V_1_memo_end,2023.2.3,119.48621167876702,2024-04-05 16h42.07.553099 +0200,
stimuli/uhnbgh.jpg,,,,,,,,,,,,,,,,,,,,,,,3,4,,,,,,,,,,,,,,,,,,,,,,,,,,,,,,,,,,,0,2,2,15,,,,,514.9288655150012,,,,,,,,,,,,,,,,,,,,,,,,,,,,,,,,sicher alt,0.4837754510008381,,,,1,,,,2024-04-05_16h41.55.092,V_1_memo_end,2023.2.3,119.48621167876702,2024-04-05 16h42.07.553099 +0200,
stimuli/ztfcvbnhg.jpg,,,,,,,,,,,,,,,,,,,,,,,1,2,,,,,,,,,,,,,,,,,,,,,,,,,,,,,,,,,,,0,3,3,0,,,,,518.1896730059998,,,,,,,,,,,,,,,,,,,,,,,,,,,,,,,,sicher alt,0.468924776003405,,,,1,,,,2024-04-05_16h41.55.092,V_1_memo_end,2023.2.3,119.48621167876702,2024-04-05 16h42.07.553099 +0200,
stimuli/sdfghj.jpg,,,,,,,,,,,,,,,,,,,,,,,3,4,,,,,,,,,,,,,,,,,,,,,,,,,,,,,,,,,,,0,4,4,13,,,,,521.4300839659991,,,,,,,,,,,,,,,,,,,,,,,,,,,,,,,,sicher alt,0.4026357459988503,,,,1,,,,2024-04-05_16h41.55.092,V_1_memo_end,2023.2.3,119.48621167876702,2024-04-05 16h42.07.553099 +0200,
stimuli/asdfgh.jpg,,,,,,,,,,,,,,,,,,,,,,,3,4,,,,,,,,,,,,,,,,,,,,,,,,,,,,,,,,,,,0,5,5,12,,,,,524.6128896619994,,,,,,,,,,,,,,,,,,,,,,,,,,,,,,,,sicher alt,0.5411791949991311,,,,1,,,,2024-04-05_16h41.55.092,V_1_memo_end,2023.2.3,119.48621167876702,2024-04-05 16h42.07.553099 +0200,
stimuli/khfp.jpg,,,,,,,,,,,,,,,,,,,,,,,1,2,,,,,,,,,,,,,,,,,,,,,,,,,,,,,,,,,,,0,6,6,8,,,,,527.9297759530018,,,,,,,,,,,,,,,,,,,,,,,,,,,,,,,,sicher alt,0.4217337119989679,,,,1,,,,2024-04-05_16h41.55.092,V_1_memo_end,2023.2.3,119.48621167876702,2024-04-05 16h42.07.553099 +0200,
stimuli/fvbjgv.jpg,,,,,,,,,,,,,,,,,,,,,,,1,2,,,,,,,,,,,,,,,,,,,,,,,,,,,,,,,,,,,0,7,7,1,,,,,531.1301771200015,,,,,,,,,,,,,,,,,,,,,,,,,,,,,,,,sicher alt,0.46921935100181145,,,,1,,,,2024-04-05_16h41.55.092,V_1_memo_end,2023.2.3,119.48621167876702,2024-04-05 16h42.07.553099 +0200,
stimuli/erthjnbvcfg.jpg,,,,,,,,,,,,,,,,,,,,,,,1,2,,,,,,,,,,,,,,,,,,,,,,,,,,,,,,,,,,,0,8,8,11,,,,,534.3792217730006,,,,,,,,,,,,,,,,,,,,,,,,,,,,,,,,sicher alt,0.5877578770014225,,,,1,,,,2024-04-05_16h41.55.092,V_1_memo_end,2023.2.3,119.48621167876702,2024-04-05 16h42.07.553099 +0200,
stimuli/kjhgfdfgh.jpg,,,,,,,,,,,,,,,,,,,,,,,3,4,,,,,,,,,,,,,,,,,,,,,,,,,,,,,,,,,,,0,9,9,14,,,,,537.7390743520009,,,,,,,,,,,,,,,,,,,,,,,,,,,,,,,,sicher alt,0.4481982710021839,,,,1,,,,2024-04-05_16h41.55.092,V_1_memo_end,2023.2.3,119.48621167876702,2024-04-05 16h42.07.553099 +0200,
stimuli/lkjhgfdxsdfghj.jpg,,,,,,,,,,,,,,,,,,,,,,,1,2,,,,,,,,,,,,,,,,,,,,,,,,,,,,,,,,,,,0,10,10,3,,,,,540.9624659590008,,,,,,,,,,,,,,,,,,,,,,,,,,,,,,,,sicher alt,1.0419974270007515,,,,1,,,,2024-04-05_16h41.55.092,V_1_memo_end,2023.2.3,119.48621167876702,2024-04-05 16h42.07.553099 +0200,
stimuli/hhhh.jpg,,,,,,,,,,,,,,,,,,,,,,,1,2,,,,,,,,,,,,,,,,,,,,,,,,,,,,,,,,,,,0,11,11,9,,,,,544.7787137820014,,,,,,,,,,,,,,,,,,,,,,,,,,,,,,,,sicher alt,0.5093228129990166,,,,1,,,,2024-04-05_16h41.55.092,V_1_memo_end,2023.2.3,119.48621167876702,2024-04-05 16h42.07.553099 +0200,
stimuli/asdfghertghvgh.jpg,,,,,,,,,,,,,,,,,,,,,,,1,2,,,,,,,,,,,,,,,,,,,,,,,,,,,,,,,,,,,0,12,12,10,,,,,548.0737221659983,,,,,,,,,,,,,,,,,,,,,,,,,,,,,,,,sicher alt,1.2828336530001252,,,,1,,,,2024-04-05_16h41.55.092,V_1_memo_end,2023.2.3,119.48621167876702,2024-04-05 16h42.07.553099 +0200,
stimuli/asdfghjkloelkjhg.jpg,,,,,,,,,,,,,,,,,,,,,,,1,2,,,,,,,,,,,,,,,,,,,,,,,,,,,,,,,,,,,0,13,13,4,,,,,552.1289838519988,,,,,,,,,,,,,,,,,,,,,,,,,,,,,,,,sicher alt,0.464567654998973,,,,1,,,,2024-04-05_16h41.55.092,V_1_memo_end,2023.2.3,119.48621167876702,2024-04-05 16h42.07.553099 +0200,
stimuli/lituryeyxcfvghjk.jpg,,,,,,,,,,,,,,,,,,,,,,,1,2,,,,,,,,,,,,,,,,,,,,,,,,,,,,,,,,,,,0,14,14,7,,,,,555.3623104139988,,,,,,,,,,,,,,,,,,,,,,,,,,,,,,,,sicher alt,0.6080395370008773,,,,1,,,,2024-04-05_16h41.55.092,V_1_memo_end,2023.2.3,119.48621167876702,2024-04-05 16h42.07.553099 +0200,
stimuli/oelkjhgfcfghjk.jpg,,,,,,,,,,,,,,,,,,,,,,,1,2,,,,,,,,,,,,,,,,,,,,,,,,,,,,,,,,,,,0,15,15,2,,,,,558.7464921729988,,,,,,,,,,,,,,,,,,,,,,,,,,,,,,,,sicher alt,0.6231468920013867,,,,1,,,,2024-04-05_16h41.55.092,V_1_memo_end,2023.2.3,119.48621167876702,2024-04-05 16h42.07.553099 +0200,
stimuli/img_jpldg.jpg,j,,,,,,,1,memory,None,None,None,None,None,living_room,None,81.7878787878788,58.1212121212121,33,69.9545454545455,203,high,,,new,1,,,,,,,,,,,,,,,,,,,,,,,,,,,,,,,,,,,,,0,0,0,0,563.7966851400015,,,,,,,,,,,,,,,,,,,,,,,,,,,,,,,,,,sicher alt,0.8765501849993598,,1,,,,2024-04-05_16h41.55.092,V_1_memo_end,2023.2.3,119.48621167876702,2024-04-05 16h42.07.553099 +0200,
stimuli/img_o2lar.jpg,f,,,,,,,1,memory,1,1,16,16,living_room,living_room,target,45.1935483870968,34.6129032258064,31,39.9032258064516,67,low,,,old,2,,,,,,,,,,,,,,,,,,,,,,,,,,,,,,,,,,,,,0,1,1,1,565.9486648570019,,,,,,,,,,,,,,,,,,,,,,,,,,,,,,,,,,sicher alt,0.404833338001481,,1,,,,2024-04-05_16h41.55.092,V_1_memo_end,2023.2.3,119.48621167876702,2024-04-05 16h42.07.553099 +0200,
stimuli/img_00ojb.jpg,f,,,,,,,1,memory,1,1,11,11,living_room,living_room,target,82.2702702702703,67.4324324324324,37,74.8513513513514,239,high,,,old,3,,,,,,,,,,,,,,,,,,,,,,,,,,,,,,,,,,,,,0,2,2,2,567.6266734320016,,,,,,,,,,,,,,,,,,,,,,,,,,,,,,,,,,sicher alt,0.5954161410008965,,1,,,,2024-04-05_16h41.55.092,V_1_memo_end,2023.2.3,119.48621167876702,2024-04-05 16h42.07.553099 +0200,
stimuli/vfghbvgh.jpg,j,,,,,,,1,memory,None,None,None,None,None,None,None,None,None,None,None,None,None,,,catch,4,,,,,,,,,,,,,,,,,,,,,,,,,,,,,,,,,,,,,0,3,3,3,569.495120902,,,,,,,,,,,,,,,,,,,,,,,,,,,,,,,,,,sicher alt,0.45444667099945946,,1,,,,2024-04-05_16h41.55.092,V_1_memo_end,2023.2.3,119.48621167876702,2024-04-05 16h42.07.553099 +0200,
stimuli/img_kost0.jpg,f,,,,,,,1,memory,1,1,9,9,living_room,living_room,target,64.3030303030303,41.3636363636364,33,52.8333333333333,121,low,,,old,5,,,,,,,,,,,,,,,,,,,,,,,,,,,,,,,,,,,,,0,4,4,4,571.2399373840017,,,,,,,,,,,,,,,,,,,,,,,,,,,,,,,,,,sicher alt,0.4057405919993471,,1,,,,2024-04-05_16h41.55.092,V_1_memo_end,2023.2.3,119.48621167876702,2024-04-05 16h42.07.553099 +0200,
stimuli/img_0t206.jpg,j,,,,,,,1,memory,None,None,None,None,None,living_room,None,89.8888888888889,69.1944444444444,36,79.5416666666667,270,high,,,new,6,,,,,,,,,,,,,,,,,,,,,,,,,,,,,,,,,,,,,0,5,5,5,572.9187603659993,,,,,,,,,,,,,,,,,,,,,,,,,,,,,,,,,,sicher alt,0.7376631770021049,,1,,,,2024-04-05_16h41.55.092,V_1_memo_end,2023.2.3,119.48621167876702,2024-04-05 16h42.07.553099 +0200,
stimuli/gfdfghjgf.jpg,j,,,,,,,1,memory,None,None,None,None,None,None,None,None,None,None,None,None,None,,,catch,7,,,,,,,,,,,,,,,,,,,,,,,,,,,,,,,,,,,,,0,6,6,6,574.9306845389983,,,,,,,,,,,,,,,,,,,,,,,,,,,,,,,,,,sicher alt,0.8735933860007208,,1,,,,2024-04-05_16h41.55.092,V_1_memo_end,2023.2.3,119.48621167876702,2024-04-05 16h42.07.553099 +0200,
stimuli/img_16kib.jpg,f,,,,,,,1,memory,1,1,21,21,living_room,living_room,target,81.2647058823529,58.8235294117647,34,70.0441176470588,204,high,,,old,8,,,,,,,,,,,,,,,,,,,,,,,,,,,,,,,,,,,,,0,7,7,7,577.0818505899988,,,,,,,,,,,,,,,,,,,,,,,,,,,,,,,,,,sicher alt,1.005712907997804,,1,,,,2024-04-05_16h41.55.092,V_1_memo_end,2023.2.3,119.48621167876702,2024-04-05 16h42.07.553099 +0200,
stimuli/img_xr3up.jpg,f,,,,,,,1,memory,1,1,5,5,living_room,living_room,target,75.2439024390244,53.4146341463415,41,64.3292682926829,176,high,,,old,9,,,,,,,,,,,,,,,,,,,,,,,,,,,,,,,,,,,,,0,8,8,8,579.3621837479986,,,,,,,,,,,,,,,,,,,,,,,,,,,,,,,,,,sicher alt,0.7384893130001728,,1,,,,2024-04-05_16h41.55.092,V_1_memo_end,2023.2.3,119.48621167876702,2024-04-05 16h42.07.553099 +0200,
stimuli/img_gnxyk.jpg,f,,,,,,,1,memory,1,1,24,24,living_room,living_room,target,86.4864864864865,72.4054054054054,37,79.4459459459459,269,high,,,old,10,,,,,,,,,,,,,,,,,,,,,,,,,,,,,,,,,,,,,0,9,9,9,581.3781641850001,,,,,,,,,,,,,,,,,,,,,,,,,,,,,,,,,,sicher alt,0.6253641869989224,,1,,,,2024-04-05_16h41.55.092,V_1_memo_end,2023.2.3,119.48621167876702,2024-04-05 16h42.07.553099 +0200,
stimuli/img_wwmp0.jpg,j,,,,,,,1,memory,None,None,None,None,None,living_room,None,81.0909090909091,61.3939393939394,33,71.2424242424242,211,high,,,new,11,,,,,,,,,,,,,,,,,,,,,,,,,,,,,,,,,,,,,0,10,10,10,583.2803699930009,,,,,,,,,,,,,,,,,,,,,,,,,,,,,,,,,,sicher alt,0.5537555959999736,,1,,,,2024-04-05_16h41.55.092,V_1_memo_end,2023.2.3,119.48621167876702,2024-04-05 16h42.07.553099 +0200,
stimuli/img_xt3jt.jpg,f,,,,,,,1,memory,1,1,10,10,living_room,living_room,target,61.4242424242424,40.8181818181818,33,51.1212121212121,114,low,,,old,12,,,,,,,,,,,,,,,,,,,,,,,,,,,,,,,,,,,,,0,11,11,11,585.1116740379985,,,,,,,,,,,,,,,,,,,,,,,,,,,,,,,,,,sicher alt,0.570763984000223,,1,,,,2024-04-05_16h41.55.092,V_1_memo_end,2023.2.3,119.48621167876702,2024-04-05 16h42.07.553099 +0200,
stimuli/img_hc7o8.jpg,f,,,,,,,1,memory,1,1,6,6,living_room,living_room,target,35.2068965517241,36.4137931034483,29,35.8103448275862,56,low,,,old,13,,,,,,,,,,,,,,,,,,,,,,,,,,,,,,,,,,,,,0,12,12,12,586.9595344640002,,,,,,,,,,,,,,,,,,,,,,,,,,,,,,,,,,sicher alt,0.6272082569994382,,1,,,,2024-04-05_16h41.55.092,V_1_memo_end,2023.2.3,119.48621167876702,2024-04-05 16h42.07.553099 +0200,
stimuli/img_9ro1y.jpg,f,,,,,,,1,memory,1,1,22,22,living_room,living_room,target,66.9473684210526,49.2105263157895,38,58.0789473684211,144,low,,,old,14,,,,,,,,,,,,,,,,,,,,,,,,,,,,,,,,,,,,,0,13,13,13,588.8730354280015,,,,,,,,,,,,,,,,,,,,,,,,,,,,,,,,,,sicher alt,1.5625466040000902,,1,,,,2024-04-05_16h41.55.092,V_1_memo_end,2023.2.3,119.48621167876702,2024-04-05 16h42.07.553099 +0200,
stimuli/img_k0m56.jpg,f,,,,,,,1,memory,1,1,1,1,living_room,living_room,target,76.0277777777778,49.9722222222222,36,63,168,high,,,old,15,,,,,,,,,,,,,,,,,,,,,,,,,,,,,,,,,,,,,0,14,14,14,591.7112624190013,,,,,,,,,,,,,,,,,,,,,,,,,,,,,,,,,,sicher alt,2.1536378669989062,,1,,,,2024-04-05_16h41.55.092,V_1_memo_end,2023.2.3,119.48621167876702,2024-04-05 16h42.07.553099 +0200,
stimuli/img_injp0.jpg,f,,,,,,,1,memory,1,1,7,7,living_room,living_room,target,63.65625,30.5,32,47.078125,95,low,,,old,16,,,,,,,,,,,,,,,,,,,,,,,,,,,,,,,,,,,,,0,15,15,15,595.1453027040006,,,,,,,,,,,,,,,,,,,,,,,,,,,,,,,,,,sicher alt,0.6705598700027622,,1,,,,2024-04-05_16h41.55.092,V_1_memo_end,2023.2.3,119.48621167876702,2024-04-05 16h42.07.553099 +0200,
stimuli/img_a6u3n.jpg,f,,,,,,,1,memory,1,1,26,26,living_room,living_room,target,82.6666666666667,61.1212121212121,33,71.8939393939394,215,high,,,old,17,,,,,,,,,,,,,,,,,,,,,,,,,,,,,,,,,,,,,0,16,16,16,597.0960951380002,,,,,,,,,,,,,,,,,,,,,,,,,,,,,,,,,,sicher alt,0.5894692110014148,,1,,,,2024-04-05_16h41.55.092,V_1_memo_end,2023.2.3,119.48621167876702,2024-04-05 16h42.07.553099 +0200,
stimuli/img_bbs77.jpg,f,,,,,,,1,memory,1,1,27,27,living_room,living_room,target,28.7777777777778,19.0555555555556,36,23.9166666666667,29,low,,,old,18,,,,,,,,,,,,,,,,,,,,,,,,,,,,,,,,,,,,,0,17,17,17,598.9577339710013,,,,,,,,,,,,,,,,,,,,,,,,,,,,,,,,,,sicher alt,0.5072893559990916,,1,,,,2024-04-05_16h41.55.092,V_1_memo_end,2023.2.3,119.48621167876702,2024-04-05 16h42.07.553099 +0200,
stimuli/img_m59op.jpg,j,,,,,,,1,memory,None,None,None,None,None,living_room,None,63.9142857142857,46.9714285714286,35,55.4428571428571,133,low,,,new,19,,,,,,,,,,,,,,,,,,,,,,,,,,,,,,,,,,,,,0,18,18,18,600.7359263450016,,,,,,,,,,,,,,,,,,,,,,,,,,,,,,,,,,sicher alt,1.1159584690030897,,1,,,,2024-04-05_16h41.55.092,V_1_memo_end,2023.2.3,119.48621167876702,2024-04-05 16h42.07.553099 +0200,
stimuli/img_73pyk.jpg,j,,,,,,,1,memory,None,None,None,None,None,living_room,None,70.7837837837838,47.1351351351351,37,58.9594594594595,147,high,,,new,20,,,,,,,,,,,,,,,,,,,,,,,,,,,,,,,,,,,,,0,19,19,19,603.1221515260004,,,,,,,,,,,,,,,,,,,,,,,,,,,,,,,,,,sicher alt,1.3731236919993535,,1,,,,2024-04-05_16h41.55.092,V_1_memo_end,2023.2.3,119.48621167876702,2024-04-05 16h42.07.553099 +0200,
stimuli/img_i2l9a.jpg,j,,,,,,,1,memory,None,None,None,None,None,living_room,None,22.3823529411765,17.5294117647059,34,19.9558823529412,17,low,,,new,21,,,,,,,,,,,,,,,,,,,,,,,,,,,,,,,,,,,,,0,20,20,20,605.7673230649998,,,,,,,,,,,,,,,,,,,,,,,,,,,,,,,,,,sicher alt,0.48901108099744306,,1,,,,2024-04-05_16h41.55.092,V_1_memo_end,2023.2.3,119.48621167876702,2024-04-05 16h42.07.553099 +0200,
stimuli/img_89dvt.jpg,f,,,,,,,1,memory,1,1,2,2,living_room,living_room,target,79.9032258064516,63,31,71.4516129032258,212,high,,,old,22,,,,,,,,,,,,,,,,,,,,,,,,,,,,,,,,,,,,,0,21,21,21,607.5284596640013,,,,,,,,,,,,,,,,,,,,,,,,,,,,,,,,,,sicher alt,0.7480579190014396,,1,,,,2024-04-05_16h41.55.092,V_1_memo_end,2023.2.3,119.48621167876702,2024-04-05 16h42.07.553099 +0200,
stimuli/img_kf7vw.jpg,f,,,,,,,1,memory,1,1,23,23,living_room,living_room,target,88.3142857142857,59.5142857142857,35,73.9142857142857,227,high,,,old,23,,,,,,,,,,,,,,,,,,,,,,,,,,,,,,,,,,,,,0,22,22,22,609.5532294229997,,,,,,,,,,,,,,,,,,,,,,,,,,,,,,,,,,sicher alt,0.49092683200069587,,1,,,,2024-04-05_16h41.55.092,V_1_memo_end,2023.2.3,119.48621167876702,2024-04-05 16h42.07.553099 +0200,
stimuli/img_fejeo.jpg,f,,,,,,,1,memory,1,1,8,8,living_room,living_room,target,81.0294117647059,65.3235294117647,34,73.1764705882353,223,high,,,old,24,,,,,,,,,,,,,,,,,,,,,,,,,,,,,,,,,,,,,0,23,23,23,611.3179971060017,,,,,,,,,,,,,,,,,,,,,,,,,,,,,,,,,,sicher alt,0.988883268997597,,1,,,,2024-04-05_16h41.55.092,V_1_memo_end,2023.2.3,119.48621167876702,2024-04-05 16h42.07.553099 +0200,
stimuli/img_hfj08.jpg,f,,,,,,,1,memory,1,1,4,4,living_room,living_room,target,86.5897435897436,60.6410256410256,39,73.6153846153846,225,high,,,old,25,,,,,,,,,,,,,,,,,,,,,,,,,,,,,,,,,,,,,0,24,24,24,613.5782855030011,,,,,,,,,,,,,,,,,,,,,,,,,,,,,,,,,,sicher alt,0.5071059139991121,,1,,,,2024-04-05_16h41.55.092,V_1_memo_end,2023.2.3,119.48621167876702,2024-04-05 16h42.07.553099 +0200,
stimuli/img_xib79.jpg,f,,,,,,,1,memory,1,1,19,19,living_room,living_room,target,79.0322580645161,51.8387096774194,31,65.4354838709677,178,high,,,old,26,,,,,,,,,,,,,,,,,,,,,,,,,,,,,,,,,,,,,0,25,25,25,615.3605003439989,,,,,,,,,,,,,,,,,,,,,,,,,,,,,,,,,,sicher alt,0.5574978029981139,,1,,,,2024-04-05_16h41.55.092,V_1_memo_end,2023.2.3,119.48621167876702,2024-04-05 16h42.07.553099 +0200,
stimuli/img_fmgjx.jpg,f,,,,,,,1,memory,1,1,12,12,living_room,living_room,target,81.5333333333333,56.0666666666667,30,68.8,199,high,,,old,27,,,,,,,,,,,,,,,,,,,,,,,,,,,,,,,,,,,,,0,26,26,26,617.1961607500016,,,,,,,,,,,,,,,,,,,,,,,,,,,,,,,,,,sicher alt,0.5907578129990725,,1,,,,2024-04-05_16h41.55.092,V_1_memo_end,2023.2.3,119.48621167876702,2024-04-05 16h42.07.553099 +0200,
stimuli/img_jpldg.jpg,f,,,,,,,1,memory,1,1,25,25,living_room,living_room,target,81.7878787878788,58.1212121212121,33,69.9545454545455,203,high,,,old,28,,,,,,,,,,,,,,,,,,,,,,,,,,,,,,,,,,,,,0,27,27,27,619.0630381660012,,,,,,,,,,,,,,,,,,,,,,,,,,,,,,,,,,sicher alt,0.5480339960013225,,1,,,,2024-04-05_16h41.55.092,V_1_memo_end,2023.2.3,119.48621167876702,2024-04-05 16h42.07.553099 +0200,
stimuli/img_53nbn.jpg,j,,,,,,,1,memory,None,None,None,None,None,living_room,None,73.7647058823529,51.2647058823529,34,62.5147058823529,166,high,,,new,29,,,,,,,,,,,,,,,,,,,,,,,,,,,,,,,,,,,,,0,28,28,28,620.8864005590003,,,,,,,,,,,,,,,,,,,,,,,,,,,,,,,,,,sicher alt,0.5979727630001435,,1,,,,2024-04-05_16h41.55.092,V_1_memo_end,2023.2.3,119.48621167876702,2024-04-05 16h42.07.553099 +0200,
stimuli/img_8297a.jpg,f,,,,,,,1,memory,1,1,20,20,living_room,living_room,target,92.0882352941177,76.3823529411765,34,84.2352941176471,288,high,,,old,30,,,,,,,,,,,,,,,,,,,,,,,,,,,,,,,,,,,,,0,29,29,29,622.7604163729993,,,,,,,,,,,,,,,,,,,,,,,,,,,,,,,,,,sicher alt,0.4620007519988576,,1,,,,2024-04-05_16h41.55.092,V_1_memo_end,2023.2.3,119.48621167876702,2024-04-05 16h42.07.553099 +0200,
stimuli/img_78zcn.jpg,f,,,,,,,1,memory,2,1,7,35,kitchen,kitchen,target,69.4814814814815,44.2592592592593,27,56.8703703703704,278,low,,,old,31,,,,,,,,,,,,,,,,,,,,,,,,,,,,,,,,,,,,,0,30,30,30,624.4962325859997,,,,,,,,,,,,,,,,,,,,,,,,,,,,,,,,,,sicher alt,0.5873496519998298,,1,,,,2024-04-05_16h41.55.092,V_1_memo_end,2023.2.3,119.48621167876702,2024-04-05 16h42.07.553099 +0200,
stimuli/img_diq9d.jpg,f,,,,,,,1,memory,2,1,6,34,kitchen,kitchen,target,81,65.6046511627907,43,73.3023255813954,619,high,,,old,32,,,,,,,,,,,,,,,,,,,,,,,,,,,,,,,,,,,,,0,31,31,31,626.3554695509993,,,,,,,,,,,,,,,,,,,,,,,,,,,,,,,,,,sicher alt,1.0154111749980075,,1,,,,2024-04-05_16h41.55.092,V_1_memo_end,2023.2.3,119.48621167876702,2024-04-05 16h42.07.553099 +0200,
stimuli/img_ncr40.jpg,f,,,,,,,1,memory,2,1,19,47,kitchen,kitchen,target,76.92,52.68,25,64.8,437,high,,,old,33,,,,,,,,,,,,,,,,,,,,,,,,,,,,,,,,,,,,,0,32,32,32,628.6492620550016,,,,,,,,,,,,,,,,,,,,,,,,,,,,,,,,,,sicher alt,1.036286613001721,,1,,,,2024-04-05_16h41.55.092,V_1_memo_end,2023.2.3,119.48621167876702,2024-04-05 16h42.07.553099 +0200,
stimuli/img_uegbb.jpg,f,,,,,,,1,memory,2,1,12,40,kitchen,kitchen,target,78.4390243902439,61.0243902439024,41,69.7317073170732,543,high,,,old,34,,,,,,,,,,,,,,,,,,,,,,,,,,,,,,,,,,,,,0,33,33,33,630.9555086569999,,,,,,,,,,,,,,,,,,,,,,,,,,,,,,,,,,sicher alt,0.4475118119989929,,1,,,,2024-04-05_16h41.55.092,V_1_memo_end,2023.2.3,119.48621167876702,2024-04-05 16h42.07.553099 +0200,
stimuli/img_c0me7.jpg,f,,,,,,,1,memory,2,1,16,44,kitchen,kitchen,target,68.4,45.6285714285714,35,57.0142857142857,281,low,,,old,35,,,,,,,,,,,,,,,,,,,,,,,,,,,,,,,,,,,,,0,34,34,34,632.6759508190007,,,,,,,,,,,,,,,,,,,,,,,,,,,,,,,,,,sicher alt,0.4296997880010167,,1,,,,2024-04-05_16h41.55.092,V_1_memo_end,2023.2.3,119.48621167876702,2024-04-05 16h42.07.553099 +0200,
stimuli/img_0mhms.jpg,f,,,,,,,1,memory,2,1,22,50,kitchen,kitchen,target,78,55.6857142857143,35,66.8428571428571,481,high,,,old,36,,,,,,,,,,,,,,,,,,,,,,,,,,,,,,,,,,,,,0,35,35,35,634.3807920940017,,,,,,,,,,,,,,,,,,,,,,,,,,,,,,,,,,sicher alt,0.5231155990004481,,1,,,,2024-04-05_16h41.55.092,V_1_memo_end,2023.2.3,119.48621167876702,2024-04-05 16h42.07.553099 +0200,
stimuli/img_vbrb7.jpg,f,,,,,,,1,memory,2,1,5,33,kitchen,kitchen,target,84.7857142857143,74.1071428571429,28,79.4464285714286,713,high,,,old,37,,,,,,,,,,,,,,,,,,,,,,,,,,,,,,,,,,,,,0,36,36,36,636.1889202980019,,,,,,,,,,,,,,,,,,,,,,,,,,,,,,,,,,sicher alt,0.6256387649991666,,1,,,,2024-04-05_16h41.55.092,V_1_memo_end,2023.2.3,119.48621167876702,2024-04-05 16h42.07.553099 +0200,
stimuli/img_2na1o.jpg,f,,,,,,,1,memory,2,1,1,29,kitchen,kitchen,target,65.3783783783784,50.3243243243243,37,57.8513513513513,295,low,,,old,38,,,,,,,,,,,,,,,,,,,,,,,,,,,,,,,,,,,,,0,37,37,37,638.0849514709989,,,,,,,,,,,,,,,,,,,,,,,,,,,,,,,,,,sicher alt,0.7267521799985843,,1,,,,2024-04-05_16h41.55.092,V_1_memo_end,2023.2.3,119.48621167876702,2024-04-05 16h42.07.553099 +0200,
stimuli/img_lszzj.jpg,f,,,,,,,1,memory,2,1,20,48,kitchen,kitchen,target,68.1428571428571,50.7142857142857,21,59.4285714285714,317,low,,,old,39,,,,,,,,,,,,,,,,,,,,,,,,,,,,,,,,,,,,,0,38,38,38,640.0772864790015,,,,,,,,,,,,,,,,,,,,,,,,,,,,,,,,,,sicher alt,1.55894608699964,,1,,,,2024-04-05_16h41.55.092,V_1_memo_end,2023.2.3,119.48621167876702,2024-04-05 16h42.07.553099 +0200,
stimuli/img_vbgti.jpg,j,,,,,,,1,memory,None,None,None,None,None,kitchen,None,56.0810810810811,39.7027027027027,37,47.8918918918919,170,low,,,new,40,,,,,,,,,,,,,,,,,,,,,,,,,,,,,,,,,,,,,0,39,39,39,642.9112621439999,,,,,,,,,,,,,,,,,,,,,,,,,,,,,,,,,,sicher alt,0.9217403850016126,,1,,,,2024-04-05_16h41.55.092,V_1_memo_end,2023.2.3,119.48621167876702,2024-04-05 16h42.07.553099 +0200,
stimuli/img_m2gan.jpg,f,,,,,,,1,memory,2,1,8,36,kitchen,kitchen,target,76.2121212121212,54.2424242424242,33,65.2272727272727,446,high,,,old,41,,,,,,,,,,,,,,,,,,,,,,,,,,,,,,,,,,,,,0,40,40,40,645.111161615001,,,,,,,,,,,,,,,,,,,,,,,,,,,,,,,,,,sicher alt,0.7808461910026381,,1,,,,2024-04-05_16h41.55.092,V_1_memo_end,2023.2.3,119.48621167876702,2024-04-05 16h42.07.553099 +0200,
stimuli/img_z2mg7.jpg,f,,,,,,,1,memory,2,1,15,43,kitchen,kitchen,target,16.1379310344828,8.03448275862069,29,12.0862068965517,6,low,,,old,42,,,,,,,,,,,,,,,,,,,,,,,,,,,,,,,,,,,,,0,41,41,41,647.1669212220004,,,,,,,,,,,,,,,,,,,,,,,,,,,,,,,,,,sicher alt,0.44881028500094544,,1,,,,2024-04-05_16h41.55.092,V_1_memo_end,2023.2.3,119.48621167876702,2024-04-05 16h42.07.553099 +0200,
stimuli/img_isw29.jpg,f,,,,,,,1,memory,2,1,27,55,kitchen,kitchen,target,52.1785714285714,23.3928571428571,28,37.7857142857143,75,low,,,old,43,,,,,,,,,,,,,,,,,,,,,,,,,,,,,,,,,,,,,0,42,42,42,648.885749680001,,,,,,,,,,,,,,,,,,,,,,,,,,,,,,,,,,sicher alt,0.5900681250022899,,1,,,,2024-04-05_16h41.55.092,V_1_memo_end,2023.2.3,119.48621167876702,2024-04-05 16h42.07.553099 +0200,
stimuli/img_s37yz.jpg,f,,,,,,,1,memory,2,1,17,45,kitchen,kitchen,target,83.52,69.88,25,76.7,680,high,,,old,44,,,,,,,,,,,,,,,,,,,,,,,,,,,,,,,,,,,,,0,43,43,43,650.7496204249983,,,,,,,,,,,,,,,,,,,,,,,,,,,,,,,,,,sicher alt,0.5639186629996402,,1,,,,2024-04-05_16h41.55.092,V_1_memo_end,2023.2.3,119.48621167876702,2024-04-05 16h42.07.553099 +0200,
stimuli/img_qwtnc.jpg,j,,,,,,,1,memory,None,None,None,None,None,kitchen,None,61.2162162162162,32.5945945945946,37,46.9054054054054,156,low,,,new,45,,,,,,,,,,,,,,,,,,,,,,,,,,,,,,,,,,,,,0,44,44,44,652.5813303190007,,,,,,,,,,,,,,,,,,,,,,,,,,,,,,,,,,sicher alt,0.6678677319978306,,1,,,,2024-04-05_16h41.55.092,V_1_memo_end,2023.2.3,119.48621167876702,2024-04-05 16h42.07.553099 +0200,
stimuli/img_1m0fn.jpg,f,,,,,,,1,memory,2,1,4,32,kitchen,kitchen,target,82.1333333333333,66.8333333333333,30,74.4833333333333,647,high,,,old,46,,,,,,,,,,,,,,,,,,,,,,,,,,,,,,,,,,,,,0,45,45,45,654.5210218850007,,,,,,,,,,,,,,,,,,,,,,,,,,,,,,,,,,sicher alt,0.5586737539997557,,1,,,,2024-04-05_16h41.55.092,V_1_memo_end,2023.2.3,119.48621167876702,2024-04-05 16h42.07.553099 +0200,
stimuli/img_epedy.jpg,f,,,,,,,1,memory,2,1,21,49,kitchen,kitchen,target,79.4782608695652,58.9565217391304,23,69.2173913043478,530,high,,,old,47,,,,,,,,,,,,,,,,,,,,,,,,,,,,,,,,,,,,,0,46,46,46,656.3498700790005,,,,,,,,,,,,,,,,,,,,,,,,,,,,,,,,,,sicher alt,0.7540290629985975,,1,,,,2024-04-05_16h41.55.092,V_1_memo_end,2023.2.3,119.48621167876702,2024-04-05 16h42.07.553099 +0200,
stimuli/img_cjvod.jpg,f,,,,,,,1,memory,2,1,14,42,kitchen,kitchen,target,74.72,50.24,25,62.48,385,high,,,old,48,,,,,,,,,,,,,,,,,,,,,,,,,,,,,,,,,,,,,0,47,47,47,658.3764794220006,,,,,,,,,,,,,,,,,,,,,,,,,,,,,,,,,,sicher alt,0.4657790040000691,,1,,,,2024-04-05_16h41.55.092,V_1_memo_end,2023.2.3,119.48621167876702,2024-04-05 16h42.07.553099 +0200,
stimuli/img_swx2d.jpg,f,,,,,,,1,memory,2,1,2,30,kitchen,kitchen,target,69.90625,33.6875,32,51.796875,208,low,,,old,49,,,,,,,,,,,,,,,,,,,,,,,,,,,,,,,,,,,,,0,48,48,48,660.114715063999,,,,,,,,,,,,,,,,,,,,,,,,,,,,,,,,,,sicher alt,0.23508990799746243,,1,,,,2024-04-05_16h41.55.092,V_1_memo_end,2023.2.3,119.48621167876702,2024-04-05 16h42.07.553099 +0200,
stimuli/img_3eusg.jpg,f,,,,,,,1,memory,2,1,11,39,kitchen,kitchen,target,70.64,53.36,25,62,377,high,,,old,50,,,,,,,,,,,,,,,,,,,,,,,,,,,,,,,,,,,,,0,49,49,49,661.6178298220002,,,,,,,,,,,,,,,,,,,,,,,,,,,,,,,,,,sicher alt,0.522524848998728,,1,,,,2024-04-05_16h41.55.092,V_1_memo_end,2023.2.3,119.48621167876702,2024-04-05 16h42.07.553099 +0200,
stimuli/img_2rwes.jpg,j,,,,,,,1,memory,None,None,None,None,None,kitchen,None,70.0476190476191,42.4285714285714,21,56.2380952380952,269,low,,,new,51,,,,,,,,,,,,,,,,,,,,,,,,,,,,,,,,,,,,,0,50,50,50,663.422129300001,,,,,,,,,,,,,,,,,,,,,,,,,,,,,,,,,,sicher alt,0.5719901539996499,,1,,,,2024-04-05_16h41.55.092,V_1_memo_end,2023.2.3,119.48621167876702,2024-04-05 16h42.07.553099 +0200,
stimuli/img_es115.jpg,j,,,,,,,1,memory,None,None,None,None,None,kitchen,None,81.5,55.8636363636364,22,68.6818181818182,521,high,,,new,52,,,,,,,,,,,,,,,,,,,,,,,,,,,,,,,,,,,,,0,51,51,51,665.2658675349994,,,,,,,,,,,,,,,,,,,,,,,,,,,,,,,,,,sicher alt,0.5382846469983633,,1,,,,2024-04-05_16h41.55.092,V_1_memo_end,2023.2.3,119.48621167876702,2024-04-05 16h42.07.553099 +0200,
